"","X.1","X","prolific_ID","Age","Gender","Nationality","Feelings","stimulus","block_number","trial_number","outcome","amount","startRT","RT","key_press","resp","factor","color","time_elapsed"
"1",2,2,36,18,"Female","Belgian","Somewhat happy","<img src='images/blue25.png'></img>","No music","1","gambleWin","25","2037",1339,"39","undefined","undefined","undefined",118538
"2",3,3,36,18,"Female","Belgian","Somewhat happy","<img src='images/purple0.png'></img>","No music","2","nonGamble","25","2396",2784,"38","undefined","undefined","undefined",124730
"3",4,4,36,18,"Female","Belgian","Somewhat happy","<img src='images/orange25.png'></img>","No music","3","gambleWin","25","1351",994,"37","undefined","undefined","undefined",128092
"4",5,5,36,18,"Female","Belgian","Somewhat happy","<img src='images/yellow25.png'></img>","No music","4","gambleLoss","25","711",717,"37","undefined","undefined","undefined",130539
"5",6,6,36,18,"Female","Belgian","Somewhat happy","<img src='images/purple0.png'></img>","No music","5","nonGamble","25","1033",2517,"40","undefined","undefined","undefined",135109
"6",7,7,36,18,"Female","Belgian","Somewhat happy","<img src='images/purple0.png'></img>","No music","6","nonGamble","25","572",1107,"38","undefined","undefined","undefined",137798
"7",8,8,36,18,"Female","Belgian","Somewhat happy","<img src='images/purple0.png'></img>","No music","7","nonGamble","25","569",1284,"40","undefined","undefined","undefined",140664
"8",9,9,36,18,"Female","Belgian","Somewhat happy","<img src='images/yellow25.png'></img>","No music","8","gambleLoss","25","636",883,"37","undefined","undefined","undefined",143199
"9",10,10,36,18,"Female","Belgian","Somewhat happy","<img src='images/purple0.png'></img>","No music","9","nonGamble","25","398",737,"40","undefined","undefined","undefined",145343
"10",11,11,36,18,"Female","Belgian","Somewhat happy","<img src='images/yellow25.png'></img>","No music","10","gambleWin","25","780",1114,"39","undefined","undefined","undefined",148261
"11",12,12,36,18,"Female","Belgian","Somewhat happy","<img src='images/purple0.png'></img>","No music","11","nonGamble","25","590",665,"38","undefined","undefined","undefined",150523
"12",13,13,36,18,"Female","Belgian","Somewhat happy","<img src='images/yellow25.png'></img>","No music","12","gambleWin","25","1314",1101,"37","undefined","undefined","undefined",153945
"13",14,14,36,18,"Female","Belgian","Somewhat happy","<img src='images/blue25.png'></img>","No music","13","gambleLoss","25","562",1712,"37","undefined","undefined","undefined",157228
"14",15,15,36,18,"Female","Belgian","Somewhat happy","<img src='images/green25.png'></img>","No music","14","gambleWin","25","1608",1183,"37","undefined","undefined","undefined",161024
"15",16,16,36,18,"Female","Belgian","Somewhat happy","<img src='images/purple0.png'></img>","No music","15","nonGamble","25","439",1460,"40","undefined","undefined","undefined",163939
"16",17,17,36,18,"Female","Belgian","Somewhat happy","<img src='images/blue25.png'></img>","No music","16","gambleWin","25","392",921,"39","undefined","undefined","undefined",166259
"17",18,18,36,18,"Female","Belgian","Somewhat happy","<img src='images/blue25.png'></img>","No music","17","gambleWin","25","783",1139,"39","undefined","undefined","undefined",169194
"18",19,19,36,18,"Female","Belgian","Somewhat happy","<img src='images/purple0.png'></img>","No music","18","nonGamble","25","366",865,"40","undefined","undefined","undefined",171442
"19",20,20,36,18,"Female","Belgian","Somewhat happy","<img src='images/purple0.png'></img>","No music","19","nonGamble","25","367",930,"38","undefined","undefined","undefined",173760
"20",21,21,36,18,"Female","Belgian","Somewhat happy","<img src='images/yellow25.png'></img>","No music","20","gambleLoss","25","572",996,"37","undefined","undefined","undefined",176352
"21",22,22,36,18,"Female","Belgian","Somewhat happy","<img src='images/blue25.png'></img>","No music","21","gambleLoss","25","427",758,"37","undefined","undefined","undefined",178550
"22",23,23,36,18,"Female","Belgian","Somewhat happy","<img src='images/purple0.png'></img>","No music","22","nonGamble","25","287",980,"40","undefined","undefined","undefined",180840
"23",24,24,36,18,"Female","Belgian","Somewhat happy","<img src='images/orange25.png'></img>","No music","23","gambleWin","25","513",851,"37","undefined","undefined","undefined",183226
"24",25,25,36,18,"Female","Belgian","Somewhat happy","<img src='images/purple0.png'></img>","No music","24","nonGamble","25","342",814,"38","undefined","undefined","undefined",185397
"25",26,26,36,18,"Female","Belgian","Somewhat happy","<img src='images/blue25.png'></img>","No music","25","gambleWin","25","559",1095,"37","undefined","undefined","undefined",188064
"26",27,27,36,18,"Female","Belgian","Somewhat happy","<img src='images/blue25.png'></img>","No music","26","gambleLoss","25","445",645,"39","undefined","undefined","undefined",190169
"27",28,28,36,18,"Female","Belgian","Somewhat happy","<img src='images/green25.png'></img>","No music","27","gambleWin","25","326",684,"39","undefined","undefined","undefined",192198
"28",29,29,36,18,"Female","Belgian","Somewhat happy","<img src='images/green25.png'></img>","No music","28","gambleWin","25","394",949,"39","undefined","undefined","undefined",194547
"29",30,30,36,18,"Female","Belgian","Somewhat happy","<img src='images/purple0.png'></img>","No music","29","nonGamble","25","714",855,"40","undefined","undefined","undefined",197136
"30",31,31,36,18,"Female","Belgian","Somewhat happy","<img src='images/green25.png'></img>","No music","30","gambleWin","25","283",911,"39","undefined","undefined","undefined",199346
"31",32,32,36,18,"Female","Belgian","Somewhat happy","<img src='images/green25.png'></img>","No music","31","gambleLoss","25","326",1092,"37","undefined","undefined","undefined",201778
"32",33,33,36,18,"Female","Belgian","Somewhat happy","<img src='images/orange25.png'></img>","No music","32","gambleLoss","25","343",771,"37","undefined","undefined","undefined",203904
"33",34,34,36,18,"Female","Belgian","Somewhat happy","<img src='images/orange25.png'></img>","No music","33","gambleLoss","25","294",683,"37","undefined","undefined","undefined",205893
"34",35,35,36,18,"Female","Belgian","Somewhat happy","<img src='images/green25.png'></img>","No music","34","gambleLoss","25","271",731,"37","undefined","undefined","undefined",207908
"35",36,36,36,18,"Female","Belgian","Somewhat happy","<img src='images/orange25.png'></img>","No music","35","gambleLoss","25","262",433,"39","undefined","undefined","undefined",209624
"36",37,37,36,18,"Female","Belgian","Somewhat happy","<img src='images/green25.png'></img>","No music","36","gambleLoss","25","278",1001,"37","undefined","undefined","undefined",211916
"37",38,38,36,18,"Female","Belgian","Somewhat happy","<img src='images/green25.png'></img>","No music","37","gambleLoss","25","280",401,"37","undefined","undefined","undefined",213618
"38",39,39,36,18,"Female","Belgian","Somewhat happy","<img src='images/orange25.png'></img>","No music","38","gambleLoss","25","316",598,"39","undefined","undefined","undefined",215538
"39",40,40,36,18,"Female","Belgian","Somewhat happy","<img src='images/orange25.png'></img>","No music","39","gambleLoss","25","514",496,"39","undefined","undefined","undefined",217563
"40",41,41,36,18,"Female","Belgian","Somewhat happy","<img src='images/yellow25.png'></img>","No music","40","gambleWin","25","472",815,"39","undefined","undefined","undefined",219860
"41",42,42,36,18,"Female","Belgian","Somewhat happy","<img src='images/purple0.png'></img>","No music","41","nonGamble","25","781",831,"40","undefined","undefined","undefined",222487
"42",43,43,36,18,"Female","Belgian","Somewhat happy","<img src='images/orange25.png'></img>","No music","42","gambleWin","25","299",509,"37","undefined","undefined","undefined",224315
"43",44,44,36,18,"Female","Belgian","Somewhat happy","<img src='images/yellow25.png'></img>","No music","43","gambleWin","25","365",577,"37","undefined","undefined","undefined",226277
"44",45,45,36,18,"Female","Belgian","Somewhat happy","<img src='images/purple0.png'></img>","No music","44","nonGamble","25","317",863,"40","undefined","undefined","undefined",228466
"45",46,46,36,18,"Female","Belgian","Somewhat happy","<img src='images/yellow25.png'></img>","No music","45","gambleLoss","25","570",897,"39","undefined","undefined","undefined",230948
"46",47,47,36,18,"Female","Belgian","Somewhat happy","<img src='images/blue25.png'></img>","No music","46","gambleWin","25","678",952,"39","undefined","undefined","undefined",233592
"47",48,48,36,18,"Female","Belgian","Somewhat happy","<img src='images/yellow25.png'></img>","No music","47","gambleLoss","25","790",956,"37","undefined","undefined","undefined",236343
"48",49,49,36,18,"Female","Belgian","Somewhat happy","<img src='images/purple0.png'></img>","No music","48","nonGamble","25","413",973,"38","undefined","undefined","undefined",238742
"49",50,50,36,18,"Female","Belgian","Somewhat happy","<img src='images/blue25.png'></img>","No music","49","gambleLoss","25","408",805,"37","undefined","undefined","undefined",240965
"50",51,51,36,18,"Female","Belgian","Somewhat happy","<img src='images/purple0.png'></img>","No music","50","nonGamble","25","491",615,"38","undefined","undefined","undefined",243075
"51",52,52,36,18,"Female","Belgian","Somewhat happy","<img src='images/purple0.png'></img>","No music","51","nonGamble","25","586",815,"38","undefined","undefined","undefined",245491
"52",53,53,36,18,"Female","Belgian","Somewhat happy","<img src='images/orange25.png'></img>","No music","52","gambleWin","25","1730",690,"37","undefined","undefined","undefined",248930
"53",54,54,36,18,"Female","Belgian","Somewhat happy","<img src='images/green25.png'></img>","No music","53","gambleWin","25","910",1049,"37","undefined","undefined","undefined",251909
"54",55,55,36,18,"Female","Belgian","Somewhat happy","<img src='images/purple0.png'></img>","No music","54","nonGamble","25","560",543,"40","undefined","undefined","undefined",254025
"55",56,56,36,18,"Female","Belgian","Somewhat happy","<img src='images/orange25.png'></img>","No music","55","gambleWin","25","326",560,"39","undefined","undefined","undefined",255917
"56",57,57,36,18,"Female","Belgian","Somewhat happy","<img src='images/purple0.png'></img>","No music","56","nonGamble","25","291",633,"40","undefined","undefined","undefined",257850
"57",58,58,36,18,"Female","Belgian","Somewhat happy","<img src='images/blue25.png'></img>","No music","57","gambleLoss","25","481",767,"39","undefined","undefined","undefined",260119
"58",59,59,36,18,"Female","Belgian","Somewhat happy","<img src='images/yellow25.png'></img>","No music","58","gambleWin","25","266",788,"37","undefined","undefined","undefined",262183
"59",60,60,36,18,"Female","Belgian","Somewhat happy","<img src='images/green25.png'></img>","No music","59","gambleLoss","25","376",724,"37","undefined","undefined","undefined",264305
"60",61,61,36,18,"Female","Belgian","Somewhat happy","<img src='images/purple0.png'></img>","No music","60","nonGamble","25","306",842,"40","undefined","undefined","undefined",266468
"61",62,62,36,18,"Female","Belgian","Somewhat happy","<img src='images/blue25.png'></img>","Negative valence","61","gambleWin","25","1762",1080,"39","undefined","undefined","undefined",300584
"62",63,63,36,18,"Female","Belgian","Somewhat happy","<img src='images/purple0.png'></img>","Negative valence","62","nonGamble","25","1120",1139,"38","undefined","undefined","undefined",303855
"63",64,64,36,18,"Female","Belgian","Somewhat happy","<img src='images/orange25.png'></img>","Negative valence","63","gambleWin","25","1160",1029,"37","undefined","undefined","undefined",307051
"64",65,65,36,18,"Female","Belgian","Somewhat happy","<img src='images/yellow25.png'></img>","Negative valence","64","gambleLoss","25","3654",853,"37","undefined","undefined","undefined",312573
"65",66,66,36,18,"Female","Belgian","Somewhat happy","<img src='images/purple0.png'></img>","Negative valence","65","nonGamble","25","689",774,"38","undefined","undefined","undefined",315055
"66",67,67,36,18,"Female","Belgian","Somewhat happy","<img src='images/purple0.png'></img>","Negative valence","66","nonGamble","25","364",862,"40","undefined","undefined","undefined",317298
"67",68,68,36,18,"Female","Belgian","Somewhat happy","<img src='images/purple0.png'></img>","Negative valence","67","nonGamble","25","338",987,"40","undefined","undefined","undefined",319636
"68",69,69,36,18,"Female","Belgian","Somewhat happy","<img src='images/yellow25.png'></img>","Negative valence","68","gambleLoss","25","359",887,"39","undefined","undefined","undefined",321893
"69",70,70,36,18,"Female","Belgian","Somewhat happy","<img src='images/purple0.png'></img>","Negative valence","69","nonGamble","25","275",685,"40","undefined","undefined","undefined",323857
"70",71,71,36,18,"Female","Belgian","Somewhat happy","<img src='images/yellow25.png'></img>","Negative valence","70","gambleWin","25","781",2423,"39","undefined","undefined","undefined",328069
"71",72,72,36,18,"Female","Belgian","Somewhat happy","<img src='images/purple0.png'></img>","Negative valence","71","nonGamble","25","342",835,"40","undefined","undefined","undefined",330266
"72",73,73,36,18,"Female","Belgian","Somewhat happy","<img src='images/yellow25.png'></img>","Negative valence","72","gambleWin","25","316",851,"37","undefined","undefined","undefined",332445
"73",74,74,36,18,"Female","Belgian","Somewhat happy","<img src='images/blue25.png'></img>","Negative valence","73","gambleLoss","25","363",1102,"37","undefined","undefined","undefined",334920
"74",75,75,36,18,"Female","Belgian","Somewhat happy","<img src='images/green25.png'></img>","Negative valence","74","gambleWin","25","313",879,"39","undefined","undefined","undefined",337121
"75",76,76,36,18,"Female","Belgian","Somewhat happy","<img src='images/purple0.png'></img>","Negative valence","75","nonGamble","25","701",868,"40","undefined","undefined","undefined",339706
"76",77,77,36,18,"Female","Belgian","Somewhat happy","<img src='images/blue25.png'></img>","Negative valence","76","gambleWin","25","660",975,"37","undefined","undefined","undefined",342355
"77",78,78,36,18,"Female","Belgian","Somewhat happy","<img src='images/blue25.png'></img>","Negative valence","77","gambleWin","25","792",872,"37","undefined","undefined","undefined",345029
"78",79,79,36,18,"Female","Belgian","Somewhat happy","<img src='images/purple0.png'></img>","Negative valence","78","nonGamble","25","386",724,"40","undefined","undefined","undefined",347151
"79",80,80,36,18,"Female","Belgian","Somewhat happy","<img src='images/purple0.png'></img>","Negative valence","79","nonGamble","25","511",764,"40","undefined","undefined","undefined",349435
"80",81,81,36,18,"Female","Belgian","Somewhat happy","<img src='images/yellow25.png'></img>","Negative valence","80","gambleLoss","25","526",943,"37","undefined","undefined","undefined",351916
"81",82,82,36,18,"Female","Belgian","Somewhat happy","<img src='images/blue25.png'></img>","Negative valence","81","gambleLoss","25","293",668,"37","undefined","undefined","undefined",353890
"82",83,83,36,18,"Female","Belgian","Somewhat happy","<img src='images/purple0.png'></img>","Negative valence","82","nonGamble","25","292",669,"40","undefined","undefined","undefined",355869
"83",84,84,36,18,"Female","Belgian","Somewhat happy","<img src='images/orange25.png'></img>","Negative valence","83","gambleWin","25","396",943,"37","undefined","undefined","undefined",358223
"84",85,85,36,18,"Female","Belgian","Somewhat happy","<img src='images/purple0.png'></img>","Negative valence","84","nonGamble","25","380",696,"40","undefined","undefined","undefined",360317
"85",86,86,36,18,"Female","Belgian","Somewhat happy","<img src='images/blue25.png'></img>","Negative valence","85","gambleWin","25","234",613,"37","undefined","undefined","undefined",362178
"86",87,87,36,18,"Female","Belgian","Somewhat happy","<img src='images/blue25.png'></img>","Negative valence","86","gambleLoss","25","353",1520,"37","undefined","undefined","undefined",365063
"87",88,88,36,18,"Female","Belgian","Somewhat happy","<img src='images/green25.png'></img>","Negative valence","87","gambleWin","25","467",648,"37","undefined","undefined","undefined",367187
"88",89,89,36,18,"Female","Belgian","Somewhat happy","<img src='images/green25.png'></img>","Negative valence","88","gambleWin","25","564",784,"37","undefined","undefined","undefined",369544
"89",90,90,36,18,"Female","Belgian","Somewhat happy","<img src='images/purple0.png'></img>","Negative valence","89","nonGamble","25","550",791,"40","undefined","undefined","undefined",371893
"90",91,91,36,18,"Female","Belgian","Somewhat happy","<img src='images/green25.png'></img>","Negative valence","90","gambleWin","25","681",951,"39","undefined","undefined","undefined",374534
"91",92,92,36,18,"Female","Belgian","Somewhat happy","<img src='images/green25.png'></img>","Negative valence","91","gambleLoss","25","644",758,"39","undefined","undefined","undefined",376949
"92",93,93,36,18,"Female","Belgian","Somewhat happy","<img src='images/orange25.png'></img>","Negative valence","92","gambleLoss","25","665",618,"39","undefined","undefined","undefined",379239
"93",94,94,36,18,"Female","Belgian","Somewhat happy","<img src='images/orange25.png'></img>","Negative valence","93","gambleLoss","25","222",898,"39","undefined","undefined","undefined",381367
"94",95,95,36,18,"Female","Belgian","Somewhat happy","<img src='images/green25.png'></img>","Negative valence","94","gambleLoss","25","257",569,"39","undefined","undefined","undefined",383212
"95",96,96,36,18,"Female","Belgian","Somewhat happy","<img src='images/orange25.png'></img>","Negative valence","95","gambleLoss","25","247",587,"39","undefined","undefined","undefined",385066
"96",97,97,36,18,"Female","Belgian","Somewhat happy","<img src='images/green25.png'></img>","Negative valence","96","gambleLoss","25","266",426,"39","undefined","undefined","undefined",386777
"97",98,98,36,18,"Female","Belgian","Somewhat happy","<img src='images/green25.png'></img>","Negative valence","97","gambleLoss","25","277",438,"39","undefined","undefined","undefined",388499
"98",99,99,36,18,"Female","Belgian","Somewhat happy","<img src='images/orange25.png'></img>","Negative valence","98","gambleLoss","25","676",383,"37","undefined","undefined","undefined",390578
"99",100,100,36,18,"Female","Belgian","Somewhat happy","<img src='images/orange25.png'></img>","Negative valence","99","gambleLoss","25","321",468,"37","undefined","undefined","undefined",392373
"100",101,101,36,18,"Female","Belgian","Somewhat happy","<img src='images/yellow25.png'></img>","Negative valence","100","gambleWin","25","239",1000,"37","undefined","undefined","undefined",394625
"101",102,102,36,18,"Female","Belgian","Somewhat happy","<img src='images/purple0.png'></img>","Negative valence","101","nonGamble","25","272",677,"40","undefined","undefined","undefined",396582
"102",103,103,36,18,"Female","Belgian","Somewhat happy","<img src='images/orange25.png'></img>","Negative valence","102","gambleWin","25","254",793,"37","undefined","undefined","undefined",398636
"103",104,104,36,18,"Female","Belgian","Somewhat happy","<img src='images/yellow25.png'></img>","Negative valence","103","gambleWin","25","430",847,"37","undefined","undefined","undefined",400929
"104",105,105,36,18,"Female","Belgian","Somewhat happy","<img src='images/purple0.png'></img>","Negative valence","104","nonGamble","25","493",662,"40","undefined","undefined","undefined",403096
"105",106,106,36,18,"Female","Belgian","Somewhat happy","<img src='images/yellow25.png'></img>","Negative valence","105","gambleLoss","25","158",700,"39","undefined","undefined","undefined",404967
"106",107,107,36,18,"Female","Belgian","Somewhat happy","<img src='images/blue25.png'></img>","Negative valence","106","gambleWin","25","227",511,"37","undefined","undefined","undefined",406712
"107",108,108,36,18,"Female","Belgian","Somewhat happy","<img src='images/yellow25.png'></img>","Negative valence","107","gambleLoss","25","258",519,"37","undefined","undefined","undefined",408510
"108",109,109,36,18,"Female","Belgian","Somewhat happy","<img src='images/purple0.png'></img>","Negative valence","108","nonGamble","25","454",692,"40","undefined","undefined","undefined",410674
"109",110,110,36,18,"Female","Belgian","Somewhat happy","<img src='images/blue25.png'></img>","Negative valence","109","gambleLoss","25","767",918,"39","undefined","undefined","undefined",413366
"110",111,111,36,18,"Female","Belgian","Somewhat happy","<img src='images/purple0.png'></img>","Negative valence","110","nonGamble","25","187",802,"38","undefined","undefined","undefined",415367
"111",112,112,36,18,"Female","Belgian","Somewhat happy","<img src='images/purple0.png'></img>","Negative valence","111","nonGamble","25","342",649,"38","undefined","undefined","undefined",417374
"112",113,113,36,18,"Female","Belgian","Somewhat happy","<img src='images/orange25.png'></img>","Negative valence","112","gambleWin","25","592",533,"37","undefined","undefined","undefined",419507
"113",114,114,36,18,"Female","Belgian","Somewhat happy","<img src='images/green25.png'></img>","Negative valence","113","gambleWin","25","303",702,"37","undefined","undefined","undefined",421525
"114",115,115,36,18,"Female","Belgian","Somewhat happy","<img src='images/purple0.png'></img>","Negative valence","114","nonGamble","25","250",1149,"40","undefined","undefined","undefined",423938
"115",116,116,36,18,"Female","Belgian","Somewhat happy","<img src='images/orange25.png'></img>","Negative valence","115","gambleWin","25","489",984,"37","undefined","undefined","undefined",426416
"116",117,117,36,18,"Female","Belgian","Somewhat happy","<img src='images/purple0.png'></img>","Negative valence","116","nonGamble","25","438",719,"40","undefined","undefined","undefined",428590
"117",118,118,36,18,"Female","Belgian","Somewhat happy","<img src='images/blue25.png'></img>","Negative valence","117","gambleLoss","25","598",581,"39","undefined","undefined","undefined",430785
"118",119,119,36,18,"Female","Belgian","Somewhat happy","<img src='images/yellow25.png'></img>","Negative valence","118","gambleWin","25","1021",663,"39","undefined","undefined","undefined",433487
"119",120,120,36,18,"Female","Belgian","Somewhat happy","<img src='images/green25.png'></img>","Negative valence","119","gambleLoss","25","500",853,"39","undefined","undefined","undefined",435850
"120",121,121,36,18,"Female","Belgian","Somewhat happy","<img src='images/purple0.png'></img>","Negative valence","120","nonGamble","25","199",677,"40","undefined","undefined","undefined",437742
"121",122,122,36,18,"Female","Belgian","Happy","<img src='images/blue25.png'></img>","Positive valence","121","gambleWin","25","2008",946,"39","undefined","undefined","undefined",466075
"122",123,123,36,18,"Female","Belgian","Happy","<img src='images/purple0.png'></img>","Positive valence","122","nonGamble","25","785",1008,"38","undefined","undefined","undefined",468890
"123",124,124,36,18,"Female","Belgian","Happy","<img src='images/orange25.png'></img>","Positive valence","123","gambleWin","25","772",988,"37","undefined","undefined","undefined",471667
"124",125,125,36,18,"Female","Belgian","Happy","<img src='images/yellow25.png'></img>","Positive valence","124","gambleLoss","25","496",1049,"37","undefined","undefined","undefined",474222
"125",126,126,36,18,"Female","Belgian","Happy","<img src='images/purple0.png'></img>","Positive valence","125","nonGamble","25","1146",895,"40","undefined","undefined","undefined",477279
"126",127,127,36,18,"Female","Belgian","Happy","<img src='images/purple0.png'></img>","Positive valence","126","nonGamble","25","874",958,"38","undefined","undefined","undefined",480119
"127",128,128,36,18,"Female","Belgian","Happy","<img src='images/purple0.png'></img>","Positive valence","127","nonGamble","25","609",674,"40","undefined","undefined","undefined",482420
"128",129,129,36,18,"Female","Belgian","Happy","<img src='images/yellow25.png'></img>","Positive valence","128","gambleLoss","25","956",933,"39","undefined","undefined","undefined",485318
"129",130,130,36,18,"Female","Belgian","Happy","<img src='images/purple0.png'></img>","Positive valence","129","nonGamble","25","589",768,"38","undefined","undefined","undefined",487689
"130",131,131,36,18,"Female","Belgian","Happy","<img src='images/yellow25.png'></img>","Positive valence","130","gambleWin","25","575",1165,"37","undefined","undefined","undefined",490442
"131",132,132,36,18,"Female","Belgian","Happy","<img src='images/purple0.png'></img>","Positive valence","131","nonGamble","25","379",804,"38","undefined","undefined","undefined",492630
"132",133,133,36,18,"Female","Belgian","Happy","<img src='images/yellow25.png'></img>","Positive valence","132","gambleWin","25","1444",1423,"37","undefined","undefined","undefined",496514
"133",134,134,36,18,"Female","Belgian","Happy","<img src='images/blue25.png'></img>","Positive valence","133","gambleLoss","25","691",1447,"37","undefined","undefined","undefined",499675
"134",135,135,36,18,"Female","Belgian","Happy","<img src='images/green25.png'></img>","Positive valence","134","gambleWin","25","273",1021,"39","undefined","undefined","undefined",501974
"135",136,136,36,18,"Female","Belgian","Happy","<img src='images/purple0.png'></img>","Positive valence","135","nonGamble","25","315",601,"40","undefined","undefined","undefined",503902
"136",137,137,36,18,"Female","Belgian","Happy","<img src='images/blue25.png'></img>","Positive valence","136","gambleWin","25","333",664,"37","undefined","undefined","undefined",505907
"137",138,138,36,18,"Female","Belgian","Happy","<img src='images/blue25.png'></img>","Positive valence","137","gambleWin","25","261",568,"37","undefined","undefined","undefined",507750
"138",139,139,36,18,"Female","Belgian","Happy","<img src='images/purple0.png'></img>","Positive valence","138","nonGamble","25","199",637,"40","undefined","undefined","undefined",509594
"139",140,140,36,18,"Female","Belgian","Happy","<img src='images/purple0.png'></img>","Positive valence","139","nonGamble","25","349",588,"40","undefined","undefined","undefined",511542
"140",141,141,36,18,"Female","Belgian","Happy","<img src='images/yellow25.png'></img>","Positive valence","140","gambleLoss","25","283",995,"37","undefined","undefined","undefined",513831
"141",142,142,36,18,"Female","Belgian","Happy","<img src='images/blue25.png'></img>","Positive valence","141","gambleLoss","25","341",762,"37","undefined","undefined","undefined",515954
"142",143,143,36,18,"Female","Belgian","Happy","<img src='images/purple0.png'></img>","Positive valence","142","nonGamble","25","174",722,"40","undefined","undefined","undefined",517868
"143",144,144,36,18,"Female","Belgian","Happy","<img src='images/orange25.png'></img>","Positive valence","143","gambleWin","25","241",478,"37","undefined","undefined","undefined",519595
"144",145,145,36,18,"Female","Belgian","Happy","<img src='images/purple0.png'></img>","Positive valence","144","nonGamble","25","273",651,"40","undefined","undefined","undefined",521536
"145",146,146,36,18,"Female","Belgian","Happy","<img src='images/blue25.png'></img>","Positive valence","145","gambleWin","25","199",974,"39","undefined","undefined","undefined",523722
"146",147,147,36,18,"Female","Belgian","Happy","<img src='images/blue25.png'></img>","Positive valence","146","gambleLoss","25","657",1057,"37","undefined","undefined","undefined",526452
"147",148,148,36,18,"Female","Belgian","Happy","<img src='images/green25.png'></img>","Positive valence","147","gambleWin","25","1218",844,"39","undefined","undefined","undefined",529529
"148",149,149,36,18,"Female","Belgian","Happy","<img src='images/green25.png'></img>","Positive valence","148","gambleWin","25","372",963,"39","undefined","undefined","undefined",531878
"149",150,150,36,18,"Female","Belgian","Happy","<img src='images/purple0.png'></img>","Positive valence","149","nonGamble","25","412",837,"38","undefined","undefined","undefined",534141
"150",151,151,36,18,"Female","Belgian","Happy","<img src='images/green25.png'></img>","Positive valence","150","gambleWin","25","542",866,"37","undefined","undefined","undefined",536560
"151",152,152,36,18,"Female","Belgian","Happy","<img src='images/green25.png'></img>","Positive valence","151","gambleLoss","25","368",561,"37","undefined","undefined","undefined",538499
"152",153,153,36,18,"Female","Belgian","Happy","<img src='images/orange25.png'></img>","Positive valence","152","gambleLoss","25","271",924,"39","undefined","undefined","undefined",540702
"153",154,154,36,18,"Female","Belgian","Happy","<img src='images/orange25.png'></img>","Positive valence","153","gambleLoss","25","291",797,"39","undefined","undefined","undefined",542795
"154",155,155,36,18,"Female","Belgian","Happy","<img src='images/green25.png'></img>","Positive valence","154","gambleLoss","25","587",741,"37","undefined","undefined","undefined",545138
"155",156,156,36,18,"Female","Belgian","Happy","<img src='images/orange25.png'></img>","Positive valence","155","gambleLoss","25","408",782,"39","undefined","undefined","undefined",547347
"156",157,157,36,18,"Female","Belgian","Happy","<img src='images/green25.png'></img>","Positive valence","156","gambleLoss","25","861",2286,"39","undefined","undefined","undefined",551501
"157",158,158,36,18,"Female","Belgian","Happy","<img src='images/green25.png'></img>","Positive valence","157","gambleLoss","25","738",948,"37","undefined","undefined","undefined",554195
"158",159,159,36,18,"Female","Belgian","Happy","<img src='images/orange25.png'></img>","Positive valence","158","gambleLoss","25","193",942,"39","undefined","undefined","undefined",556351
"159",160,160,36,18,"Female","Belgian","Happy","<img src='images/orange25.png'></img>","Positive valence","159","gambleLoss","25","296",450,"39","undefined","undefined","undefined",558105
"160",161,161,36,18,"Female","Belgian","Happy","<img src='images/yellow25.png'></img>","Positive valence","160","gambleWin","25","231",492,"39","undefined","undefined","undefined",559846
"161",162,162,36,18,"Female","Belgian","Happy","<img src='images/purple0.png'></img>","Positive valence","161","nonGamble","25","281",602,"40","undefined","undefined","undefined",561734
"162",163,163,36,18,"Female","Belgian","Happy","<img src='images/orange25.png'></img>","Positive valence","162","gambleWin","25","482",600,"37","undefined","undefined","undefined",563829
"163",164,164,36,18,"Female","Belgian","Happy","<img src='images/yellow25.png'></img>","Positive valence","163","gambleWin","25","574",493,"37","undefined","undefined","undefined",565910
"164",165,165,36,18,"Female","Belgian","Happy","<img src='images/purple0.png'></img>","Positive valence","164","nonGamble","25","400",771,"40","undefined","undefined","undefined",568087
"165",166,166,36,18,"Female","Belgian","Happy","<img src='images/yellow25.png'></img>","Positive valence","165","gambleLoss","25","697",875,"37","undefined","undefined","undefined",570665
"166",167,167,36,18,"Female","Belgian","Happy","<img src='images/blue25.png'></img>","Positive valence","166","gambleWin","25","142",600,"37","undefined","undefined","undefined",572423
"167",168,168,36,18,"Female","Belgian","Happy","<img src='images/yellow25.png'></img>","Positive valence","167","gambleLoss","25","500",617,"37","undefined","undefined","undefined",574549
"168",169,169,36,18,"Female","Belgian","Happy","<img src='images/purple0.png'></img>","Positive valence","168","nonGamble","25","293",767,"40","undefined","undefined","undefined",576615
"169",170,170,36,18,"Female","Belgian","Happy","<img src='images/blue25.png'></img>","Positive valence","169","gambleLoss","25","458",883,"37","undefined","undefined","undefined",578966
"170",171,171,36,18,"Female","Belgian","Happy","<img src='images/purple0.png'></img>","Positive valence","170","nonGamble","25","136",625,"40","undefined","undefined","undefined",580739
"171",172,172,36,18,"Female","Belgian","Happy","<img src='images/purple0.png'></img>","Positive valence","171","nonGamble","25","490",1006,"38","undefined","undefined","undefined",583243
"172",173,173,36,18,"Female","Belgian","Happy","<img src='images/orange25.png'></img>","Positive valence","172","gambleWin","25","770",876,"39","undefined","undefined","undefined",585902
"173",174,174,36,18,"Female","Belgian","Happy","<img src='images/green25.png'></img>","Positive valence","173","gambleWin","25","781",1524,"39","undefined","undefined","undefined",589221
"174",175,175,36,18,"Female","Belgian","Happy","<img src='images/purple0.png'></img>","Positive valence","174","nonGamble","25","533",525,"38","undefined","undefined","undefined",591296
"175",176,176,36,18,"Female","Belgian","Happy","<img src='images/orange25.png'></img>","Positive valence","175","gambleWin","25","397",1064,"37","undefined","undefined","undefined",593770
"176",177,177,36,18,"Female","Belgian","Happy","<img src='images/purple0.png'></img>","Positive valence","176","nonGamble","25","1367",923,"38","undefined","undefined","undefined",597073
"177",178,178,36,18,"Female","Belgian","Happy","<img src='images/blue25.png'></img>","Positive valence","177","gambleLoss","25","0",752,"37","undefined","undefined","undefined",598838
"178",179,179,36,18,"Female","Belgian","Happy","<img src='images/yellow25.png'></img>","Positive valence","178","gambleWin","25","285",752,"37","undefined","undefined","undefined",600896
"179",180,180,36,18,"Female","Belgian","Happy","<img src='images/green25.png'></img>","Positive valence","179","gambleLoss","25","275",504,"37","undefined","undefined","undefined",602690
"180",181,181,36,18,"Female","Belgian","Happy","<img src='images/purple0.png'></img>","Positive valence","180","nonGamble","25","310",632,"40","undefined","undefined","undefined",604653
"181",182,182,36,18,"Female","Belgian","Happy","undefined","undefined","undefined","undefined","undefined","undefined",8947,"undefined","2","Perseverance","undefined",624762
"182",183,183,36,18,"Female","Belgian","Happy","undefined","undefined","undefined","undefined","undefined","undefined",5685,"undefined","1","Premeditation","undefined",630451
"183",184,184,36,18,"Female","Belgian","Happy","undefined","undefined","undefined","undefined","undefined","undefined",7115,"undefined","2","Positive Urgency","undefined",637569
"184",185,185,36,18,"Female","Belgian","Happy","undefined","undefined","undefined","undefined","undefined","undefined",10569,"undefined","2","Perseverance","undefined",648142
"185",186,186,36,18,"Female","Belgian","Happy","undefined","undefined","undefined","undefined","undefined","undefined",6107,"undefined","2","Premeditation","undefined",654253
"186",187,187,36,18,"Female","Belgian","Happy","undefined","undefined","undefined","undefined","undefined","undefined",9020,"undefined","2","Negative Urgency","undefined",663276
"187",188,188,36,18,"Female","Belgian","Happy","undefined","undefined","undefined","undefined","undefined","undefined",10667,"undefined","3","Perseverance","undefined",673948
"188",189,189,36,18,"Female","Belgian","Happy","undefined","undefined","undefined","undefined","undefined","undefined",11240,"undefined","3","Negative Urgency","undefined",685191
"189",190,190,36,18,"Female","Belgian","Happy","undefined","undefined","undefined","undefined","undefined","undefined",6594,"undefined","2","Sensation Seeking","undefined",691787
"190",191,191,36,18,"Female","Belgian","Happy","undefined","undefined","undefined","undefined","undefined","undefined",14388,"undefined","2","Positive Urgency","undefined",706179
"191",192,192,36,18,"Female","Belgian","Happy","undefined","undefined","undefined","undefined","undefined","undefined",3426,"undefined","2","Perseverance","undefined",709607
"192",193,193,36,18,"Female","Belgian","Happy","undefined","undefined","undefined","undefined","undefined","undefined",12425,"undefined","2","Premeditation","undefined",722036
"193",194,194,36,18,"Female","Belgian","Happy","undefined","undefined","undefined","undefined","undefined","undefined",5872,"undefined","1","Negative Urgency","undefined",727912
"194",195,195,36,18,"Female","Belgian","Happy","undefined","undefined","undefined","undefined","undefined","undefined",8929,"undefined","3","Sensation Seeking","undefined",736844
"195",196,196,36,18,"Female","Belgian","Happy","undefined","undefined","undefined","undefined","undefined","undefined",6725,"undefined","3","Negative Urgency","undefined",743574
"196",197,197,36,18,"Female","Belgian","Happy","undefined","undefined","undefined","undefined","undefined","undefined",4970,"undefined","1","Sensation Seeking","undefined",748548
"197",198,198,36,18,"Female","Belgian","Happy","undefined","undefined","undefined","undefined","undefined","undefined",5946,"undefined","1","Positive Urgency","undefined",754497
"198",199,199,36,18,"Female","Belgian","Happy","undefined","undefined","undefined","undefined","undefined","undefined",6867,"undefined","3","Sensation Seeking","undefined",761367
"199",200,200,36,18,"Female","Belgian","Happy","undefined","undefined","undefined","undefined","undefined","undefined",7876,"undefined","2","Premeditation","undefined",769247
"200",201,201,36,18,"Female","Belgian","Happy","undefined","undefined","undefined","undefined","undefined","undefined",9646,"undefined","2","Positive Urgency","undefined",778896
