"","X.1","X","prolific_ID","Age","Gender","Nationality","Feelings","stimulus","block_number","trial_number","outcome","amount","startRT","RT","key_press","resp","factor","color","time_elapsed"
"1",2,2,22,"Age","Gender","Nationality","Feelings","stimulus","block_number","trial_number","outcome","amount","startRT","RT","key_press","resp","factor","color","time_elapsed"
"2",3,3,22,"18","Female","Belg","Somewhat happy","<img src='images/green25.png'></img>","No music","1","gambleLoss","25","1415","859","39","undefined","undefined","undefined","95941"
"3",4,4,22,"18","Female","Belg","Somewhat happy","<img src='images/purple0.png'></img>","No music","2","nonGamble","25","709","1254","40","undefined","undefined","undefined","98909"
"4",5,5,22,"18","Female","Belg","Somewhat happy","<img src='images/yellow25.png'></img>","No music","3","gambleWin","25","1206","694","39","undefined","undefined","undefined","101813"
"5",6,6,22,"18","Female","Belg","Somewhat happy","<img src='images/green25.png'></img>","No music","4","gambleWin","25","451","736","39","undefined","undefined","undefined","104005"
"6",7,7,22,"18","Female","Belg","Somewhat happy","<img src='images/orange25.png'></img>","No music","5","gambleWin","25","684","935","37","undefined","undefined","undefined","106629"
"7",8,8,22,"18","Female","Belg","Somewhat happy","<img src='images/blue25.png'></img>","No music","6","gambleLoss","25","84","958","37","undefined","undefined","undefined","108677"
"8",9,9,22,"18","Female","Belg","Somewhat happy","<img src='images/green25.png'></img>","No music","7","gambleWin","25","525","623","39","undefined","undefined","undefined","110829"
"9",10,10,22,"18","Female","Belg","Somewhat happy","<img src='images/orange25.png'></img>","No music","8","gambleWin","25","276","1135","39","undefined","undefined","undefined","113245"
"10",11,11,22,"18","Female","Belg","Somewhat happy","<img src='images/yellow25.png'></img>","No music","9","gambleLoss","25","476","583","39","undefined","undefined","undefined","115309"
"11",12,12,22,"18","Female","Belg","Somewhat happy","<img src='images/purple0.png'></img>","No music","10","nonGamble","25","916","791","40","undefined","undefined","undefined","118021"
"12",13,13,22,"18","Female","Belg","Somewhat happy","<img src='images/yellow25.png'></img>","No music","11","gambleWin","25","59","807","37","undefined","undefined","undefined","119893"
"13",14,14,22,"18","Female","Belg","Somewhat happy","<img src='images/blue25.png'></img>","No music","12","gambleLoss","25","957","718","39","undefined","undefined","undefined","122573"
"14",15,15,22,"18","Female","Belg","Somewhat happy","<img src='images/blue25.png'></img>","No music","13","gambleLoss","25","27","463","39","undefined","undefined","undefined","124069"
"15",16,16,22,"18","Female","Belg","Somewhat happy","<img src='images/yellow25.png'></img>","No music","14","gambleLoss","25","507","783","37","undefined","undefined","undefined","126365"
"16",17,17,22,"18","Female","Belg","Somewhat happy","<img src='images/purple0.png'></img>","No music","15","nonGamble","25","107","942","38","undefined","undefined","undefined","128420"
"17",18,18,22,"18","Female","Belg","Somewhat happy","<img src='images/purple0.png'></img>","No music","16","nonGamble","25","53","807","40","undefined","undefined","undefined","130285"
"18",19,19,22,"18","Female","Belg","Somewhat happy","<img src='images/green25.png'></img>","No music","17","gambleWin","25","116","688","37","undefined","undefined","undefined","132093"
"19",20,20,22,"18","Female","Belg","Somewhat happy","<img src='images/purple0.png'></img>","No music","18","nonGamble","25","500","1175","38","undefined","undefined","undefined","134773"
"20",21,21,22,"18","Female","Belg","Somewhat happy","<img src='images/purple0.png'></img>","No music","19","nonGamble","25","59","1406","38","undefined","undefined","undefined","137245"
"21",22,22,22,"18","Female","Belg","Somewhat happy","<img src='images/orange25.png'></img>","No music","20","gambleWin","25","45","598","39","undefined","undefined","undefined","138893"
"22",23,23,22,"18","Female","Belg","Somewhat happy","<img src='images/orange25.png'></img>","No music","21","gambleLoss","25","1204","583","39","undefined","undefined","undefined","141685"
"23",24,24,22,"18","Female","Belg","Somewhat happy","<img src='images/yellow25.png'></img>","No music","22","gambleWin","25","523","487","39","undefined","undefined","undefined","143701"
"24",25,25,22,"18","Female","Belg","Somewhat happy","<img src='images/purple0.png'></img>","No music","23","nonGamble","25","602","351","40","undefined","undefined","undefined","145669"
"25",26,26,22,"18","Female","Belg","Somewhat happy","<img src='images/green25.png'></img>","No music","24","gambleLoss","25","156","526","37","undefined","undefined","undefined","147357"
"26",27,27,22,"18","Female","Belg","Somewhat happy","<img src='images/purple0.png'></img>","No music","25","nonGamble","25","236","383","40","undefined","undefined","undefined","148981"
"27",28,28,22,"18","Female","Belg","Somewhat happy","<img src='images/purple0.png'></img>","No music","26","nonGamble","25","341","727","40","undefined","undefined","undefined","151053"
"28",29,29,22,"18","Female","Belg","Somewhat happy","<img src='images/orange25.png'></img>","No music","27","gambleLoss","25","196","494","37","undefined","undefined","undefined","152748"
"29",30,30,22,"18","Female","Belg","Somewhat happy","<img src='images/purple0.png'></img>","No music","28","nonGamble","25","22","631","40","undefined","undefined","undefined","154405"
"30",31,31,22,"18","Female","Belg","Somewhat happy","<img src='images/purple0.png'></img>","No music","29","nonGamble","25","323","848","40","undefined","undefined","undefined","156581"
"31",32,32,22,"18","Female","Belg","Somewhat happy","<img src='images/blue25.png'></img>","No music","30","gambleWin","25","356","599","39","undefined","undefined","undefined","158541"
"32",33,33,22,"18","Female","Belg","Somewhat happy","<img src='images/orange25.png'></img>","No music","31","gambleWin","25","147","503","39","undefined","undefined","undefined","160197"
"33",34,34,22,"18","Female","Belg","Somewhat happy","<img src='images/yellow25.png'></img>","No music","32","gambleLoss","25","116","510","37","undefined","undefined","undefined","161829"
"34",35,35,22,"18","Female","Belg","Somewhat happy","<img src='images/green25.png'></img>","No music","33","gambleWin","25","244","591","37","undefined","undefined","undefined","163669"
"35",36,36,22,"18","Female","Belg","Somewhat happy","<img src='images/green25.png'></img>","No music","34","gambleLoss","25","499","712","37","undefined","undefined","undefined","165885"
"36",37,37,22,"18","Female","Belg","Somewhat happy","<img src='images/green25.png'></img>","No music","35","gambleLoss","25","363","503","37","undefined","undefined","undefined","167756"
"37",38,38,22,"18","Female","Belg","Somewhat happy","<img src='images/orange25.png'></img>","No music","36","gambleWin","25","348","272","37","undefined","undefined","undefined","169381"
"38",39,39,22,"18","Female","Belg","Somewhat happy","<img src='images/purple0.png'></img>","No music","37","nonGamble","25","517","751","40","undefined","undefined","undefined","171653"
"39",40,40,22,"18","Female","Belg","Somewhat happy","<img src='images/blue25.png'></img>","No music","38","gambleWin","25","379","558","37","undefined","undefined","undefined","173596"
"40",41,41,22,"18","Female","Belg","Somewhat happy","<img src='images/purple0.png'></img>","No music","39","nonGamble","25","367","759","40","undefined","undefined","undefined","175725"
"41",42,42,22,"18","Female","Belg","Somewhat happy","<img src='images/purple0.png'></img>","No music","40","nonGamble","25","355","447","40","undefined","undefined","undefined","177533"
"42",43,43,22,"18","Female","Belg","Somewhat happy","<img src='images/orange25.png'></img>","No music","41","gambleLoss","25","387","592","39","undefined","undefined","undefined","179518"
"43",44,44,22,"18","Female","Belg","Somewhat happy","<img src='images/yellow25.png'></img>","No music","42","gambleWin","25","356","415","39","undefined","undefined","undefined","181293"
"44",45,45,22,"18","Female","Belg","Somewhat happy","<img src='images/orange25.png'></img>","No music","43","gambleLoss","25","342","359","39","undefined","undefined","undefined","182997"
"45",46,46,22,"18","Female","Belg","Somewhat happy","<img src='images/blue25.png'></img>","No music","44","gambleWin","25","357","430","39","undefined","undefined","undefined","184789"
"46",47,47,22,"18","Female","Belg","Somewhat happy","<img src='images/yellow25.png'></img>","No music","45","gambleWin","25","533","519","39","undefined","undefined","undefined","186845"
"47",48,48,22,"18","Female","Belg","Somewhat happy","<img src='images/orange25.png'></img>","No music","46","gambleLoss","25","396","783","37","undefined","undefined","undefined","189029"
"48",49,49,22,"18","Female","Belg","Somewhat happy","<img src='images/blue25.png'></img>","No music","47","gambleLoss","25","453","287","39","undefined","undefined","undefined","190773"
"49",50,50,22,"18","Female","Belg","Somewhat happy","<img src='images/blue25.png'></img>","No music","48","gambleWin","25","444","255","37","undefined","undefined","undefined","192477"
"50",51,51,22,"18","Female","Belg","Somewhat happy","<img src='images/green25.png'></img>","No music","49","gambleWin","25","652","272","39","undefined","undefined","undefined","194406"
"51",52,52,22,"18","Female","Belg","Somewhat happy","<img src='images/purple0.png'></img>","No music","50","nonGamble","25","427","647","40","undefined","undefined","undefined","196485"
"52",53,53,22,"18","Female","Belg","Somewhat happy","<img src='images/purple0.png'></img>","No music","51","nonGamble","25","380","583","40","undefined","undefined","undefined","198453"
"53",54,54,22,"18","Female","Belg","Somewhat happy","<img src='images/purple0.png'></img>","No music","52","nonGamble","25","373","479","40","undefined","undefined","undefined","200309"
"54",55,55,22,"18","Female","Belg","Somewhat happy","<img src='images/blue25.png'></img>","No music","53","gambleWin","25","276","582","39","undefined","undefined","undefined","202172"
"55",56,56,22,"18","Female","Belg","Somewhat happy","<img src='images/green25.png'></img>","No music","54","gambleLoss","25","310","376","39","undefined","undefined","undefined","203861"
"56",57,57,22,"18","Female","Belg","Somewhat happy","<img src='images/purple0.png'></img>","No music","55","nonGamble","25","364","727","40","undefined","undefined","undefined","205957"
"57",58,58,22,"18","Female","Belg","Somewhat happy","<img src='images/purple0.png'></img>","No music","56","nonGamble","25","781","535","40","undefined","undefined","undefined","208277"
"58",59,59,22,"18","Female","Belg","Somewhat happy","<img src='images/blue25.png'></img>","No music","57","gambleLoss","25","556","535","39","undefined","undefined","undefined","210373"
"59",60,60,22,"18","Female","Belg","Somewhat happy","<img src='images/yellow25.png'></img>","No music","58","gambleLoss","25","140","575","39","undefined","undefined","undefined","212093"
"60",61,61,22,"18","Female","Belg","Somewhat happy","<img src='images/yellow25.png'></img>","No music","59","gambleLoss","25","532","472","39","undefined","undefined","undefined","214101"
"61",62,62,22,"18","Female","Belg","Somewhat happy","<img src='images/purple0.png'></img>","No music","60","nonGamble","25","13","583","40","undefined","undefined","undefined","215702"
"62",63,63,22,"18","Female","Belg","Somewhat unhappy","<img src='images/green25.png'></img>","Negative valence","61","gambleLoss","25","2467","526","39","undefined","undefined","undefined","241428"
"63",64,64,22,"18","Female","Belg","Somewhat unhappy","<img src='images/purple0.png'></img>","Negative valence","62","nonGamble","25","461","495","40","undefined","undefined","undefined","243389"
"64",65,65,22,"18","Female","Belg","Somewhat unhappy","<img src='images/yellow25.png'></img>","Negative valence","63","gambleWin","25","333","486","39","undefined","undefined","undefined","245213"
"65",66,66,22,"18","Female","Belg","Somewhat unhappy","<img src='images/green25.png'></img>","Negative valence","64","gambleWin","25","367","558","39","undefined","undefined","undefined","247149"
"66",67,67,22,"18","Female","Belg","Somewhat unhappy","<img src='images/orange25.png'></img>","Negative valence","65","gambleWin","25","5","566","39","undefined","undefined","undefined","248725"
"67",68,68,22,"18","Female","Belg","Somewhat unhappy","<img src='images/blue25.png'></img>","Negative valence","66","gambleLoss","25","373","494","39","undefined","undefined","undefined","250597"
"68",69,69,22,"18","Female","Belg","Somewhat unhappy","<img src='images/green25.png'></img>","Negative valence","67","gambleWin","25","421","758","39","undefined","undefined","undefined","252780"
"69",70,70,22,"18","Female","Belg","Somewhat unhappy","<img src='images/orange25.png'></img>","Negative valence","68","gambleWin","25","27","510","39","undefined","undefined","undefined","254325"
"70",71,71,22,"18","Female","Belg","Somewhat unhappy","<img src='images/yellow25.png'></img>","Negative valence","69","gambleLoss","25","550","478","39","undefined","undefined","undefined","256364"
"71",72,72,22,"18","Female","Belg","Somewhat unhappy","<img src='images/purple0.png'></img>","Negative valence","70","nonGamble","25","830","612","40","undefined","undefined","undefined","258813"
"72",73,73,22,"18","Female","Belg","Somewhat unhappy","<img src='images/yellow25.png'></img>","Negative valence","71","gambleWin","25","468","526","39","undefined","undefined","undefined","260812"
"73",74,74,22,"18","Female","Belg","Somewhat unhappy","<img src='images/blue25.png'></img>","Negative valence","72","gambleLoss","25","251","398","39","undefined","undefined","undefined","262468"
"74",75,75,22,"18","Female","Belg","Somewhat unhappy","<img src='images/blue25.png'></img>","Negative valence","73","gambleLoss","25","909","1118","39","undefined","undefined","undefined","265501"
"75",76,76,22,"18","Female","Belg","Somewhat unhappy","<img src='images/yellow25.png'></img>","Negative valence","74","gambleLoss","25","3","535","39","undefined","undefined","undefined","267045"
"76",77,77,22,"18","Female","Belg","Somewhat unhappy","<img src='images/purple0.png'></img>","Negative valence","75","nonGamble","25","605","519","40","undefined","undefined","undefined","269173"
"77",78,78,22,"18","Female","Belg","Somewhat unhappy","<img src='images/purple0.png'></img>","Negative valence","76","nonGamble","25","19","535","40","undefined","undefined","undefined","270733"
"78",79,79,22,"18","Female","Belg","Somewhat unhappy","<img src='images/green25.png'></img>","Negative valence","77","gambleWin","25","20","840","39","undefined","undefined","undefined","272596"
"79",80,80,22,"18","Female","Belg","Somewhat unhappy","<img src='images/purple0.png'></img>","Negative valence","78","nonGamble","25","301","702","40","undefined","undefined","undefined","274605"
"80",81,81,22,"18","Female","Belg","Somewhat unhappy","<img src='images/purple0.png'></img>","Negative valence","79","nonGamble","25","548","551","40","undefined","undefined","undefined","276709"
"81",82,82,22,"18","Female","Belg","Somewhat unhappy","<img src='images/orange25.png'></img>","Negative valence","80","gambleWin","25","116","766","39","undefined","undefined","undefined","278596"
"82",83,83,22,"18","Female","Belg","Somewhat unhappy","<img src='images/orange25.png'></img>","Negative valence","81","gambleLoss","25","53","407","39","undefined","undefined","undefined","280061"
"83",84,84,22,"18","Female","Belg","Somewhat unhappy","<img src='images/yellow25.png'></img>","Negative valence","82","gambleWin","25","12","399","39","undefined","undefined","undefined","281476"
"84",85,85,22,"18","Female","Belg","Somewhat unhappy","<img src='images/purple0.png'></img>","Negative valence","83","nonGamble","25","484","446","40","undefined","undefined","undefined","283412"
"85",86,86,22,"18","Female","Belg","Somewhat unhappy","<img src='images/green25.png'></img>","Negative valence","84","gambleLoss","25","901","543","39","undefined","undefined","undefined","285861"
"86",87,87,22,"18","Female","Belg","Somewhat unhappy","<img src='images/purple0.png'></img>","Negative valence","85","nonGamble","25","605","734","40","undefined","undefined","undefined","288213"
"87",88,88,22,"18","Female","Belg","Somewhat unhappy","<img src='images/purple0.png'></img>","Negative valence","86","nonGamble","25","492","527","40","undefined","undefined","undefined","290261"
"88",89,89,22,"18","Female","Belg","Somewhat unhappy","<img src='images/orange25.png'></img>","Negative valence","87","gambleLoss","25","91","575","37","undefined","undefined","undefined","291932"
"89",90,90,22,"18","Female","Belg","Somewhat unhappy","<img src='images/purple0.png'></img>","Negative valence","88","nonGamble","25","5","670","40","undefined","undefined","undefined","293613"
"90",91,91,22,"18","Female","Belg","Somewhat unhappy","<img src='images/purple0.png'></img>","Negative valence","89","nonGamble","25","460","575","40","undefined","undefined","undefined","295653"
"91",92,92,22,"18","Female","Belg","Somewhat unhappy","<img src='images/blue25.png'></img>","Negative valence","90","gambleWin","25","67","630","37","undefined","undefined","undefined","297356"
"92",93,93,22,"18","Female","Belg","Somewhat unhappy","<img src='images/orange25.png'></img>","Negative valence","91","gambleWin","25","101","622","37","undefined","undefined","undefined","299085"
"93",94,94,22,"18","Female","Belg","Somewhat unhappy","<img src='images/yellow25.png'></img>","Negative valence","92","gambleLoss","25","188","751","39","undefined","undefined","undefined","301029"
"94",95,95,22,"18","Female","Belg","Somewhat unhappy","<img src='images/green25.png'></img>","Negative valence","93","gambleWin","25","732","415","39","undefined","undefined","undefined","303181"
"95",96,96,22,"18","Female","Belg","Somewhat unhappy","<img src='images/green25.png'></img>","Negative valence","94","gambleLoss","25","811","454","39","undefined","undefined","undefined","305453"
"96",97,97,22,"18","Female","Belg","Somewhat unhappy","<img src='images/green25.png'></img>","Negative valence","95","gambleLoss","25","131","438","39","undefined","undefined","undefined","307029"
"97",98,98,22,"18","Female","Belg","Somewhat unhappy","<img src='images/orange25.png'></img>","Negative valence","96","gambleWin","25","84","471","39","undefined","undefined","undefined","308589"
"98",99,99,22,"18","Female","Belg","Somewhat unhappy","<img src='images/purple0.png'></img>","Negative valence","97","nonGamble","25","15","719","40","undefined","undefined","undefined","310341"
"99",100,100,22,"18","Female","Belg","Somewhat unhappy","<img src='images/blue25.png'></img>","Negative valence","98","gambleWin","25","443","406","37","undefined","undefined","undefined","312196"
"100",101,101,22,"18","Female","Belg","Somewhat unhappy","<img src='images/purple0.png'></img>","Negative valence","99","nonGamble","25","468","431","40","undefined","undefined","undefined","314101"
"101",102,102,22,"18","Female","Belg","Somewhat unhappy","<img src='images/purple0.png'></img>","Negative valence","100","nonGamble","25","211","526","40","undefined","undefined","undefined","315845"
"102",103,103,22,"18","Female","Belg","Somewhat unhappy","<img src='images/orange25.png'></img>","Negative valence","101","gambleLoss","25","101","534","39","undefined","undefined","undefined","317485"
"103",104,104,22,"18","Female","Belg","Somewhat unhappy","<img src='images/yellow25.png'></img>","Negative valence","102","gambleWin","25","515","646","37","undefined","undefined","undefined","319653"
"104",105,105,22,"18","Female","Belg","Somewhat unhappy","<img src='images/orange25.png'></img>","Negative valence","103","gambleLoss","25","675","478","37","undefined","undefined","undefined","321813"
"105",106,106,22,"18","Female","Belg","Somewhat unhappy","<img src='images/blue25.png'></img>","Negative valence","104","gambleWin","25","667","462","39","undefined","undefined","undefined","323949"
"106",107,107,22,"18","Female","Belg","Somewhat unhappy","<img src='images/yellow25.png'></img>","Negative valence","105","gambleWin","25","580","1096","39","undefined","undefined","undefined","326629"
"107",108,108,22,"18","Female","Belg","Somewhat unhappy","<img src='images/orange25.png'></img>","Negative valence","106","gambleLoss","25","644","758","39","undefined","undefined","undefined","329036"
"108",109,109,22,"18","Female","Belg","Somewhat unhappy","<img src='images/blue25.png'></img>","Negative valence","107","gambleLoss","25","205","396","39","undefined","undefined","undefined","330644"
"109",110,110,22,"18","Female","Belg","Somewhat unhappy","<img src='images/blue25.png'></img>","Negative valence","108","gambleWin","25","109","615","37","undefined","undefined","undefined","332373"
"110",111,111,22,"18","Female","Belg","Somewhat unhappy","<img src='images/green25.png'></img>","Negative valence","109","gambleWin","25","508","526","37","undefined","undefined","undefined","334413"
"111",112,112,22,"18","Female","Belg","Somewhat unhappy","<img src='images/purple0.png'></img>","Negative valence","110","nonGamble","25","403","590","40","undefined","undefined","undefined","336413"
"112",113,113,22,"18","Female","Belg","Somewhat unhappy","<img src='images/purple0.png'></img>","Negative valence","111","nonGamble","25","42","599","40","undefined","undefined","undefined","338061"
"113",114,114,22,"18","Female","Belg","Somewhat unhappy","<img src='images/purple0.png'></img>","Negative valence","112","nonGamble","25","500","630","40","undefined","undefined","undefined","340196"
"114",115,115,22,"18","Female","Belg","Somewhat unhappy","<img src='images/blue25.png'></img>","Negative valence","113","gambleWin","25","788","622","39","undefined","undefined","undefined","342613"
"115",116,116,22,"18","Female","Belg","Somewhat unhappy","<img src='images/green25.png'></img>","Negative valence","114","gambleLoss","25","2251","630","39","undefined","undefined","undefined","346501"
"116",117,117,22,"18","Female","Belg","Somewhat unhappy","<img src='images/purple0.png'></img>","Negative valence","115","nonGamble","25","490","407","40","undefined","undefined","undefined","348405"
"117",118,118,22,"18","Female","Belg","Somewhat unhappy","<img src='images/purple0.png'></img>","Negative valence","116","nonGamble","25","331","743","40","undefined","undefined","undefined","350485"
"118",119,119,22,"18","Female","Belg","Somewhat unhappy","<img src='images/blue25.png'></img>","Negative valence","117","gambleLoss","25","139","487","39","undefined","undefined","undefined","352117"
"119",120,120,22,"18","Female","Belg","Somewhat unhappy","<img src='images/yellow25.png'></img>","Negative valence","118","gambleLoss","25","244","462","39","undefined","undefined","undefined","353829"
"120",121,121,22,"18","Female","Belg","Somewhat unhappy","<img src='images/yellow25.png'></img>","Negative valence","119","gambleLoss","25","632","342","39","undefined","undefined","undefined","355821"
"121",122,122,22,"18","Female","Belg","Somewhat unhappy","<img src='images/purple0.png'></img>","Negative valence","120","nonGamble","25","117","559","40","undefined","undefined","undefined","357501"
"122",123,123,22,"18","Female","Belg","Somewhat happy","<img src='images/green25.png'></img>","Positive valence","121","gambleLoss","25","3991","486","39","undefined","undefined","undefined","382845"
"123",124,124,22,"18","Female","Belg","Somewhat happy","<img src='images/purple0.png'></img>","Positive valence","122","nonGamble","25","531","645","40","undefined","undefined","undefined","385029"
"124",125,125,22,"18","Female","Belg","Somewhat happy","<img src='images/yellow25.png'></img>","Positive valence","123","gambleWin","25","638","415","39","undefined","undefined","undefined","387101"
"125",126,126,22,"18","Female","Belg","Somewhat happy","<img src='images/green25.png'></img>","Positive valence","124","gambleWin","25","339","527","39","undefined","undefined","undefined","388973"
"126",127,127,22,"18","Female","Belg","Somewhat happy","<img src='images/orange25.png'></img>","Positive valence","125","gambleWin","25","540","487","39","undefined","undefined","undefined","391005"
"127",128,128,22,"18","Female","Belg","Somewhat happy","<img src='images/blue25.png'></img>","Positive valence","126","gambleLoss","25","427","471","39","undefined","undefined","undefined","392917"
"128",129,129,22,"18","Female","Belg","Somewhat happy","<img src='images/green25.png'></img>","Positive valence","127","gambleWin","25","354","791","39","undefined","undefined","undefined","395069"
"129",130,130,22,"18","Female","Belg","Somewhat happy","<img src='images/orange25.png'></img>","Positive valence","128","gambleWin","25","22","486","39","undefined","undefined","undefined","396589"
"130",131,131,22,"18","Female","Belg","Somewhat happy","<img src='images/yellow25.png'></img>","Positive valence","129","gambleLoss","25","96","383","39","undefined","undefined","undefined","398077"
"131",132,132,22,"18","Female","Belg","Somewhat happy","<img src='images/purple0.png'></img>","Positive valence","130","nonGamble","25","42","647","40","undefined","undefined","undefined","399773"
"132",133,133,22,"18","Female","Belg","Somewhat happy","<img src='images/yellow25.png'></img>","Positive valence","131","gambleWin","25","572","1007","39","undefined","undefined","undefined","402357"
"133",134,134,22,"18","Female","Belg","Somewhat happy","<img src='images/blue25.png'></img>","Positive valence","132","gambleLoss","25","556","391","39","undefined","undefined","undefined","404317"
"134",135,135,22,"18","Female","Belg","Somewhat happy","<img src='images/blue25.png'></img>","Positive valence","133","gambleLoss","25","28","447","39","undefined","undefined","undefined","405797"
"135",136,136,22,"18","Female","Belg","Somewhat happy","<img src='images/yellow25.png'></img>","Positive valence","134","gambleLoss","25","92","495","39","undefined","undefined","undefined","407389"
"136",137,137,22,"18","Female","Belg","Somewhat happy","<img src='images/purple0.png'></img>","Positive valence","135","nonGamble","25","453","749","40","undefined","undefined","undefined","409597"
"137",138,138,22,"18","Female","Belg","Somewhat happy","<img src='images/purple0.png'></img>","Positive valence","136","nonGamble","25","590","615","40","undefined","undefined","undefined","411805"
"138",139,139,22,"18","Female","Belg","Somewhat happy","<img src='images/green25.png'></img>","Positive valence","137","gambleWin","25","572","679","39","undefined","undefined","undefined","414061"
"139",140,140,22,"18","Female","Belg","Somewhat happy","<img src='images/purple0.png'></img>","Positive valence","138","nonGamble","25","605","540","40","undefined","undefined","undefined","416213"
"140",141,141,22,"18","Female","Belg","Somewhat happy","<img src='images/purple0.png'></img>","Positive valence","139","nonGamble","25","517","526","40","undefined","undefined","undefined","418261"
"141",142,142,22,"18","Female","Belg","Somewhat happy","<img src='images/orange25.png'></img>","Positive valence","140","gambleWin","25","643","550","39","undefined","undefined","undefined","420461"
"142",143,143,22,"18","Female","Belg","Somewhat happy","<img src='images/orange25.png'></img>","Positive valence","141","gambleLoss","25","491","439","39","undefined","undefined","undefined","422396"
"143",144,144,22,"18","Female","Belg","Somewhat happy","<img src='images/yellow25.png'></img>","Positive valence","142","gambleWin","25","588","374","39","undefined","undefined","undefined","424364"
"144",145,145,22,"18","Female","Belg","Somewhat happy","<img src='images/purple0.png'></img>","Positive valence","143","nonGamble","25","747","662","40","undefined","undefined","undefined","426780"
"145",146,146,22,"18","Female","Belg","Somewhat happy","<img src='images/green25.png'></img>","Positive valence","144","gambleLoss","25","509","413","39","undefined","undefined","undefined","428708"
"146",147,147,22,"18","Female","Belg","Somewhat happy","<img src='images/purple0.png'></img>","Positive valence","145","nonGamble","25","61","511","40","undefined","undefined","undefined","430285"
"147",148,148,22,"18","Female","Belg","Somewhat happy","<img src='images/purple0.png'></img>","Positive valence","146","nonGamble","25","420","550","40","undefined","undefined","undefined","432260"
"148",149,149,22,"18","Female","Belg","Somewhat happy","<img src='images/orange25.png'></img>","Positive valence","147","gambleLoss","25","548","502","39","undefined","undefined","undefined","434316"
"149",150,150,22,"18","Female","Belg","Somewhat happy","<img src='images/purple0.png'></img>","Positive valence","148","nonGamble","25","92","566","40","undefined","undefined","undefined","435981"
"150",151,151,22,"18","Female","Belg","Somewhat happy","<img src='images/purple0.png'></img>","Positive valence","149","nonGamble","25","459","646","40","undefined","undefined","undefined","438092"
"151",152,152,22,"18","Female","Belg","Somewhat happy","<img src='images/blue25.png'></img>","Positive valence","150","gambleWin","25","324","550","39","undefined","undefined","undefined","439973"
"152",153,153,22,"18","Female","Belg","Somewhat happy","<img src='images/orange25.png'></img>","Positive valence","151","gambleWin","25","388","462","39","undefined","undefined","undefined","441828"
"153",154,154,22,"18","Female","Belg","Somewhat happy","<img src='images/yellow25.png'></img>","Positive valence","152","gambleLoss","25","587","574","37","undefined","undefined","undefined","443996"
"154",155,155,22,"18","Female","Belg","Somewhat happy","<img src='images/green25.png'></img>","Positive valence","153","gambleWin","25","172","622","39","undefined","undefined","undefined","445796"
"155",156,156,22,"18","Female","Belg","Somewhat happy","<img src='images/green25.png'></img>","Positive valence","154","gambleLoss","25","347","432","39","undefined","undefined","undefined","447580"
"156",157,157,22,"18","Female","Belg","Somewhat happy","<img src='images/green25.png'></img>","Positive valence","155","gambleLoss","25","451","646","37","undefined","undefined","undefined","449684"
"157",158,158,22,"18","Female","Belg","Somewhat happy","<img src='images/orange25.png'></img>","Positive valence","156","gambleWin","25","178","485","39","undefined","undefined","undefined","451356"
"158",159,159,22,"18","Female","Belg","Somewhat happy","<img src='images/purple0.png'></img>","Positive valence","157","nonGamble","25","358","646","40","undefined","undefined","undefined","453365"
"159",160,160,22,"18","Female","Belg","Somewhat happy","<img src='images/blue25.png'></img>","Positive valence","158","gambleWin","25","611","438","39","undefined","undefined","undefined","455421"
"160",161,161,22,"18","Female","Belg","Somewhat happy","<img src='images/purple0.png'></img>","Positive valence","159","nonGamble","25","691","646","40","undefined","undefined","undefined","457764"
"161",162,162,22,"18","Female","Belg","Somewhat happy","<img src='images/purple0.png'></img>","Positive valence","160","nonGamble","25","620","551","40","undefined","undefined","undefined","459941"
"162",163,163,22,"18","Female","Belg","Somewhat happy","<img src='images/orange25.png'></img>","Positive valence","161","gambleLoss","25","861","511","39","undefined","undefined","undefined","462332"
"163",164,164,22,"18","Female","Belg","Somewhat happy","<img src='images/yellow25.png'></img>","Positive valence","162","gambleWin","25","317","438","39","undefined","undefined","undefined","464093"
"164",165,165,22,"18","Female","Belg","Somewhat happy","<img src='images/orange25.png'></img>","Positive valence","163","gambleLoss","25","540","382","39","undefined","undefined","undefined","466020"
"165",166,166,22,"18","Female","Belg","Somewhat happy","<img src='images/blue25.png'></img>","Positive valence","164","gambleWin","25","499","391","39","undefined","undefined","undefined","467916"
"166",167,167,22,"18","Female","Belg","Somewhat happy","<img src='images/yellow25.png'></img>","Positive valence","165","gambleWin","25","1988","350","39","undefined","undefined","undefined","471261"
"167",168,168,22,"18","Female","Belg","Somewhat happy","<img src='images/orange25.png'></img>","Positive valence","166","gambleLoss","25","43","406","39","undefined","undefined","undefined","472717"
"168",169,169,22,"18","Female","Belg","Somewhat happy","<img src='images/blue25.png'></img>","Positive valence","167","gambleLoss","25","147","774","39","undefined","undefined","undefined","474644"
"169",170,170,22,"18","Female","Belg","Somewhat happy","<img src='images/blue25.png'></img>","Positive valence","168","gambleWin","25","366","358","39","undefined","undefined","undefined","476373"
"170",171,171,22,"18","Female","Belg","Somewhat happy","<img src='images/green25.png'></img>","Positive valence","169","gambleWin","25","396","359","39","undefined","undefined","undefined","478134"
"171",172,172,22,"18","Female","Belg","Somewhat happy","<img src='images/purple0.png'></img>","Positive valence","170","nonGamble","25","427","661","40","undefined","undefined","undefined","480230"
"172",173,173,22,"18","Female","Belg","Somewhat happy","<img src='images/purple0.png'></img>","Positive valence","171","nonGamble","25","499","734","40","undefined","undefined","undefined","482469"
"173",174,174,22,"18","Female","Belg","Somewhat happy","<img src='images/purple0.png'></img>","Positive valence","172","nonGamble","25","564","566","40","undefined","undefined","undefined","484605"
"174",175,175,22,"18","Female","Belg","Somewhat happy","<img src='images/blue25.png'></img>","Positive valence","173","gambleWin","25","614","342","39","undefined","undefined","undefined","486565"
"175",176,176,22,"18","Female","Belg","Somewhat happy","<img src='images/green25.png'></img>","Positive valence","174","gambleLoss","25","963","446","39","undefined","undefined","undefined","488981"
"176",177,177,22,"18","Female","Belg","Somewhat happy","<img src='images/purple0.png'></img>","Positive valence","175","nonGamble","25","670","686","40","undefined","undefined","undefined","491342"
"177",178,178,22,"18","Female","Belg","Somewhat happy","<img src='images/purple0.png'></img>","Positive valence","176","nonGamble","25","746","886","40","undefined","undefined","undefined","493981"
"178",179,179,22,"18","Female","Belg","Somewhat happy","<img src='images/blue25.png'></img>","Positive valence","177","gambleLoss","25","659","614","39","undefined","undefined","undefined","496261"
"179",180,180,22,"18","Female","Belg","Somewhat happy","<img src='images/yellow25.png'></img>","Positive valence","178","gambleLoss","25","236","566","39","undefined","undefined","undefined","498070"
"180",181,181,22,"18","Female","Belg","Somewhat happy","<img src='images/yellow25.png'></img>","Positive valence","179","gambleLoss","25","155","478","39","undefined","undefined","undefined","499717"
"181",182,182,22,"18","Female","Belg","Somewhat happy","<img src='images/purple0.png'></img>","Positive valence","180","nonGamble","25","1116","534","40","undefined","undefined","undefined","502374"
"182",183,183,22,"18","Female","Belg","Somewhat happy","undefined","undefined","undefined","undefined","undefined","undefined","4891","undefined","2","Perseverance","undefined","518449"
"183",184,184,22,"18","Female","Belg","Somewhat happy","undefined","undefined","undefined","undefined","undefined","undefined","4511","undefined","2","Premeditation","undefined","522961"
"184",185,185,22,"18","Female","Belg","Somewhat happy","undefined","undefined","undefined","undefined","undefined","undefined","5661","undefined","2","Positive Urgency","undefined","528623"
"185",186,186,22,"18","Female","Belg","Somewhat happy","undefined","undefined","undefined","undefined","undefined","undefined","4209","undefined","2","Perseverance","undefined","532833"
"186",187,187,22,"18","Female","Belg","Somewhat happy","undefined","undefined","undefined","undefined","undefined","undefined","3079","undefined","1","Premeditation","undefined","535913"
"187",188,188,22,"18","Female","Belg","Somewhat happy","undefined","undefined","undefined","undefined","undefined","undefined","5636","undefined","2","Negative Urgency","undefined","541550"
"188",189,189,22,"18","Female","Belg","Somewhat happy","undefined","undefined","undefined","undefined","undefined","undefined","4633","undefined","3","Perseverance","undefined","546184"
"189",190,190,22,"18","Female","Belg","Somewhat happy","undefined","undefined","undefined","undefined","undefined","undefined","4552","undefined","3","Negative Urgency","undefined","550738"
"190",191,191,22,"18","Female","Belg","Somewhat happy","undefined","undefined","undefined","undefined","undefined","undefined","5610","undefined","2","Sensation Seeking","undefined","556350"
"191",192,192,22,"18","Female","Belg","Somewhat happy","undefined","undefined","undefined","undefined","undefined","undefined","3501","undefined","1","Positive Urgency","undefined","559852"
"192",193,193,22,"18","Female","Belg","Somewhat happy","undefined","undefined","undefined","undefined","undefined","undefined","2918","undefined","2","Perseverance","undefined","562772"
"193",194,194,22,"18","Female","Belg","Somewhat happy","undefined","undefined","undefined","undefined","undefined","undefined","5126","undefined","1","Premeditation","undefined","567900"
"194",195,195,22,"18","Female","Belg","Somewhat happy","undefined","undefined","undefined","undefined","undefined","undefined","4249","undefined","2","Negative Urgency","undefined","572150"
"195",196,196,22,"18","Female","Belg","Somewhat happy","undefined","undefined","undefined","undefined","undefined","undefined","4337","undefined","2","Sensation Seeking","undefined","576488"
"196",197,197,22,"18","Female","Belg","Somewhat happy","undefined","undefined","undefined","undefined","undefined","undefined","3141","undefined","2","Negative Urgency","undefined","579630"
"197",198,198,22,"18","Female","Belg","Somewhat happy","undefined","undefined","undefined","undefined","undefined","undefined","5303","undefined","1","Sensation Seeking","undefined","584934"
"198",199,199,22,"18","Female","Belg","Somewhat happy","undefined","undefined","undefined","undefined","undefined","undefined","5396","undefined","1","Positive Urgency","undefined","590332"
"199",200,200,22,"18","Female","Belg","Somewhat happy","undefined","undefined","undefined","undefined","undefined","undefined","5182","undefined","3","Sensation Seeking","undefined","595517"
"200",201,201,22,"18","Female","Belg","Somewhat happy","undefined","undefined","undefined","undefined","undefined","undefined","3220","undefined","1","Premeditation","undefined","598738"
"201",202,202,22,"18","Female","Belg","Somewhat happy","undefined","undefined","undefined","undefined","undefined","undefined","4330","undefined","2","Positive Urgency","undefined","603071"
