"","X.1","X","prolific_ID","Age","Gender","Nationality","Feelings","stimulus","block_number","trial_number","outcome","amount","startRT","RT","key_press","resp","factor","color","time_elapsed"
"1",2,2,23,"18","Female","Belgium","Somewhat happy","<img src='images/purple0.png'></img>","No music","1","nonGamble","25","607","1548","38","undefined","undefined","undefined","44044"
"2",3,3,23,"18","Female","Belgium","Somewhat happy","<img src='images/orange25.png'></img>","No music","2","gambleWin","25","295","443","39","undefined","undefined","undefined","45786"
"3",4,4,23,"18","Female","Belgium","Somewhat happy","<img src='images/green25.png'></img>","No music","3","gambleWin","25","287","342","37","undefined","undefined","undefined","47420"
"4",5,5,23,"18","Female","Belgium","Somewhat happy","<img src='images/yellow25.png'></img>","No music","4","gambleWin","25","336","901","39","undefined","undefined","undefined","49661"
"5",6,6,23,"18","Female","Belgium","Somewhat happy","<img src='images/green25.png'></img>","No music","5","gambleLoss","25","1662","351","37","undefined","undefined","undefined","52677"
"6",7,7,23,"18","Female","Belgium","Somewhat happy","<img src='images/blue25.png'></img>","No music","6","gambleWin","25","317","236","39","undefined","undefined","undefined","54234"
"7",8,8,23,"18","Female","Belgium","Somewhat happy","<img src='images/orange25.png'></img>","No music","7","gambleLoss","25","306","231","39","undefined","undefined","undefined","55776"
"8",9,9,23,"18","Female","Belgium","Somewhat happy","<img src='images/blue25.png'></img>","No music","8","gambleLoss","25","275","204","39","undefined","undefined","undefined","57260"
"9",10,10,23,"18","Female","Belgium","Somewhat happy","<img src='images/purple0.png'></img>","No music","9","nonGamble","25","257","1656","38","undefined","undefined","undefined","60179"
"10",11,11,23,"18","Female","Belgium","Somewhat happy","<img src='images/yellow25.png'></img>","No music","10","gambleWin","25","1390","303","39","undefined","undefined","undefined","62875"
"11",12,12,23,"18","Female","Belgium","Somewhat happy","<img src='images/yellow25.png'></img>","No music","11","gambleWin","25","304","258","39","undefined","undefined","undefined","64443"
"12",13,13,23,"18","Female","Belgium","Somewhat happy","<img src='images/purple0.png'></img>","No music","12","nonGamble","25","1129","735","40","undefined","undefined","undefined","67311"
"13",14,14,23,"18","Female","Belgium","Somewhat happy","<img src='images/purple0.png'></img>","No music","13","nonGamble","25","814","884","38","undefined","undefined","undefined","70013"
"14",15,15,23,"18","Female","Belgium","Somewhat happy","<img src='images/blue25.png'></img>","No music","14","gambleWin","25","341","313","39","undefined","undefined","undefined","71672"
"15",16,16,23,"18","Female","Belgium","Somewhat happy","<img src='images/blue25.png'></img>","No music","15","gambleLoss","25","250","327","39","undefined","undefined","undefined","73253"
"16",17,17,23,"18","Female","Belgium","Somewhat happy","<img src='images/purple0.png'></img>","No music","16","nonGamble","25","273","1228","38","undefined","undefined","undefined","75760"
"17",18,18,23,"18","Female","Belgium","Somewhat happy","<img src='images/blue25.png'></img>","No music","17","gambleLoss","25","602","327","39","undefined","undefined","undefined","77693"
"18",19,19,23,"18","Female","Belgium","Somewhat happy","<img src='images/purple0.png'></img>","No music","18","nonGamble","25","1780","647","40","undefined","undefined","undefined","81124"
"19",20,20,23,"18","Female","Belgium","Somewhat happy","<img src='images/yellow25.png'></img>","No music","19","gambleLoss","25","263","283","39","undefined","undefined","undefined","82674"
"20",21,21,23,"18","Female","Belgium","Somewhat happy","<img src='images/purple0.png'></img>","No music","20","nonGamble","25","272","286","40","undefined","undefined","undefined","84237"
"21",22,22,23,"18","Female","Belgium","Somewhat happy","<img src='images/green25.png'></img>","No music","21","gambleLoss","25","346","212","39","undefined","undefined","undefined","85800"
"22",23,23,23,"18","Female","Belgium","Somewhat happy","<img src='images/yellow25.png'></img>","No music","22","gambleWin","25","259","973","37","undefined","undefined","undefined","88036"
"23",24,24,23,"18","Female","Belgium","Somewhat happy","<img src='images/green25.png'></img>","No music","23","gambleWin","25","1148","284","37","undefined","undefined","undefined","90472"
"24",25,25,23,"18","Female","Belgium","Somewhat happy","<img src='images/yellow25.png'></img>","No music","24","gambleLoss","25","543","303","37","undefined","undefined","undefined","92332"
"25",26,26,23,"18","Female","Belgium","Somewhat happy","<img src='images/yellow25.png'></img>","No music","25","gambleWin","25","226","306","39","undefined","undefined","undefined","93869"
"26",27,27,23,"18","Female","Belgium","Somewhat happy","<img src='images/green25.png'></img>","No music","26","gambleWin","25","284","271","39","undefined","undefined","undefined","95428"
"27",28,28,23,"18","Female","Belgium","Somewhat happy","<img src='images/orange25.png'></img>","No music","27","gambleWin","25","1153","361","39","undefined","undefined","undefined","97947"
"28",29,29,23,"18","Female","Belgium","Somewhat happy","<img src='images/purple0.png'></img>","No music","28","nonGamble","25","909","636","38","undefined","undefined","undefined","100495"
"29",30,30,23,"18","Female","Belgium","Somewhat happy","<img src='images/purple0.png'></img>","No music","29","nonGamble","25","258","1500","40","undefined","undefined","undefined","103258"
"30",31,31,23,"18","Female","Belgium","Somewhat happy","<img src='images/purple0.png'></img>","No music","30","nonGamble","25","504","910","38","undefined","undefined","undefined","105689"
"31",32,32,23,"18","Female","Belgium","Somewhat happy","<img src='images/blue25.png'></img>","No music","31","gambleLoss","25","456","749","39","undefined","undefined","undefined","107898"
"32",33,33,23,"18","Female","Belgium","Somewhat happy","<img src='images/purple0.png'></img>","No music","32","nonGamble","25","256","1079","40","undefined","undefined","undefined","110239"
"33",34,34,23,"18","Female","Belgium","Somewhat happy","<img src='images/purple0.png'></img>","No music","33","nonGamble","25","211","1038","38","undefined","undefined","undefined","112493"
"34",35,35,23,"18","Female","Belgium","Somewhat happy","<img src='images/purple0.png'></img>","No music","34","nonGamble","25","264","817","40","undefined","undefined","undefined","114578"
"35",36,36,23,"18","Female","Belgium","Somewhat happy","<img src='images/orange25.png'></img>","No music","35","gambleLoss","25","274","366","39","undefined","undefined","undefined","116223"
"36",37,37,23,"18","Female","Belgium","Somewhat happy","<img src='images/orange25.png'></img>","No music","36","gambleLoss","25","266","358","37","undefined","undefined","undefined","117851"
"37",38,38,23,"18","Female","Belgium","Somewhat happy","<img src='images/purple0.png'></img>","No music","37","nonGamble","25","179","864","38","undefined","undefined","undefined","119899"
"38",39,39,23,"18","Female","Belgium","Somewhat happy","<img src='images/orange25.png'></img>","No music","38","gambleLoss","25","329","858","39","undefined","undefined","undefined","122090"
"39",40,40,23,"18","Female","Belgium","Somewhat happy","<img src='images/orange25.png'></img>","No music","39","gambleWin","25","226","781","37","undefined","undefined","undefined","124101"
"40",41,41,23,"18","Female","Belgium","Somewhat happy","<img src='images/purple0.png'></img>","No music","40","nonGamble","25","290","646","38","undefined","undefined","undefined","126043"
"41",42,42,23,"18","Female","Belgium","Somewhat happy","<img src='images/purple0.png'></img>","No music","41","nonGamble","25","264","715","40","undefined","undefined","undefined","128027"
"42",43,43,23,"18","Female","Belgium","Somewhat happy","<img src='images/green25.png'></img>","No music","42","gambleLoss","25","266","299","39","undefined","undefined","undefined","129597"
"43",44,44,23,"18","Female","Belgium","Somewhat happy","<img src='images/blue25.png'></img>","No music","43","gambleLoss","25","431","587","37","undefined","undefined","undefined","131619"
"44",45,45,23,"18","Female","Belgium","Somewhat happy","<img src='images/orange25.png'></img>","No music","44","gambleWin","25","274","532","39","undefined","undefined","undefined","133431"
"45",46,46,23,"18","Female","Belgium","Somewhat happy","<img src='images/green25.png'></img>","No music","45","gambleLoss","25","289","348","39","undefined","undefined","undefined","135072"
"46",47,47,23,"18","Female","Belgium","Somewhat happy","<img src='images/yellow25.png'></img>","No music","46","gambleLoss","25","83","881","39","undefined","undefined","undefined","137040"
"47",48,48,23,"18","Female","Belgium","Somewhat happy","<img src='images/orange25.png'></img>","No music","47","gambleWin","25","233","353","39","undefined","undefined","undefined","138631"
"48",49,49,23,"18","Female","Belgium","Somewhat happy","<img src='images/yellow25.png'></img>","No music","48","gambleLoss","25","263","549","39","undefined","undefined","undefined","140447"
"49",50,50,23,"18","Female","Belgium","Somewhat happy","<img src='images/blue25.png'></img>","No music","49","gambleWin","25","273","299","39","undefined","undefined","undefined","142027"
"50",51,51,23,"18","Female","Belgium","Somewhat happy","<img src='images/orange25.png'></img>","No music","50","gambleLoss","25","297","265","39","undefined","undefined","undefined","143594"
"51",52,52,23,"18","Female","Belgium","Somewhat happy","<img src='images/purple0.png'></img>","No music","51","nonGamble","25","383","308","40","undefined","undefined","undefined","145290"
"52",53,53,23,"18","Female","Belgium","Somewhat happy","<img src='images/green25.png'></img>","No music","52","gambleWin","25","117","266","37","undefined","undefined","undefined","146678"
"53",54,54,23,"18","Female","Belgium","Somewhat happy","<img src='images/purple0.png'></img>","No music","53","nonGamble","25","224","795","40","undefined","undefined","undefined","148701"
"54",55,55,23,"18","Female","Belgium","Somewhat happy","<img src='images/blue25.png'></img>","No music","54","gambleWin","25","282","378","39","undefined","undefined","undefined","150370"
"55",56,56,23,"18","Female","Belgium","Somewhat happy","<img src='images/blue25.png'></img>","No music","55","gambleWin","25","132","331","39","undefined","undefined","undefined","151837"
"56",57,57,23,"18","Female","Belgium","Somewhat happy","<img src='images/yellow25.png'></img>","No music","56","gambleLoss","25","234","472","39","undefined","undefined","undefined","153547"
"57",58,58,23,"18","Female","Belgium","Somewhat happy","<img src='images/green25.png'></img>","No music","57","gambleWin","25","102","601","39","undefined","undefined","undefined","155255"
"58",59,59,23,"18","Female","Belgium","Somewhat happy","<img src='images/purple0.png'></img>","No music","58","nonGamble","25","24","590","40","undefined","undefined","undefined","156872"
"59",60,60,23,"18","Female","Belgium","Somewhat happy","<img src='images/green25.png'></img>","No music","59","gambleLoss","25","236","261","39","undefined","undefined","undefined","158372"
"60",61,61,23,"18","Female","Belgium","Somewhat happy","<img src='images/purple0.png'></img>","No music","60","nonGamble","25","537","331","40","undefined","undefined","undefined","160246"
"61",62,62,23,"18","Female","Belgium","Somewhat happy","<img src='images/purple0.png'></img>","Negative valence","61","nonGamble","25","1782","730","38","undefined","undefined","undefined","184623"
"62",63,63,23,"18","Female","Belgium","Somewhat happy","<img src='images/orange25.png'></img>","Negative valence","62","gambleWin","25","140","249","39","undefined","undefined","undefined","186027"
"63",64,64,23,"18","Female","Belgium","Somewhat happy","<img src='images/green25.png'></img>","Negative valence","63","gambleWin","25","132","242","39","undefined","undefined","undefined","187409"
"64",65,65,23,"18","Female","Belgium","Somewhat happy","<img src='images/yellow25.png'></img>","Negative valence","64","gambleWin","25","226","413","39","undefined","undefined","undefined","189059"
"65",66,66,23,"18","Female","Belgium","Somewhat happy","<img src='images/green25.png'></img>","Negative valence","65","gambleLoss","25","30","260","39","undefined","undefined","undefined","190357"
"66",67,67,23,"18","Female","Belgium","Somewhat happy","<img src='images/blue25.png'></img>","Negative valence","66","gambleWin","25","241","291","37","undefined","undefined","undefined","191908"
"67",68,68,23,"18","Female","Belgium","Somewhat happy","<img src='images/orange25.png'></img>","Negative valence","67","gambleLoss","25","434","269","37","undefined","undefined","undefined","193615"
"68",69,69,23,"18","Female","Belgium","Somewhat happy","<img src='images/blue25.png'></img>","Negative valence","68","gambleLoss","25","235","245","39","undefined","undefined","undefined","195103"
"69",70,70,23,"18","Female","Belgium","Somewhat happy","<img src='images/purple0.png'></img>","Negative valence","69","nonGamble","25","217","854","38","undefined","undefined","undefined","197191"
"70",71,71,23,"18","Female","Belgium","Somewhat happy","<img src='images/yellow25.png'></img>","Negative valence","70","gambleWin","25","254","270","39","undefined","undefined","undefined","198721"
"71",72,72,23,"18","Female","Belgium","Somewhat happy","<img src='images/yellow25.png'></img>","Negative valence","71","gambleWin","25","213","252","39","undefined","undefined","undefined","200200"
"72",73,73,23,"18","Female","Belgium","Somewhat happy","<img src='images/purple0.png'></img>","Negative valence","72","nonGamble","25","428","667","40","undefined","undefined","undefined","202309"
"73",74,74,23,"18","Female","Belgium","Somewhat happy","<img src='images/purple0.png'></img>","Negative valence","73","nonGamble","25","229","610","40","undefined","undefined","undefined","204159"
"74",75,75,23,"18","Female","Belgium","Somewhat happy","<img src='images/blue25.png'></img>","Negative valence","74","gambleWin","25","275","309","39","undefined","undefined","undefined","205752"
"75",76,76,23,"18","Female","Belgium","Somewhat happy","<img src='images/blue25.png'></img>","Negative valence","75","gambleLoss","25","237","252","39","undefined","undefined","undefined","207244"
"76",77,77,23,"18","Female","Belgium","Somewhat happy","<img src='images/purple0.png'></img>","Negative valence","76","nonGamble","25","59","616","38","undefined","undefined","undefined","208923"
"77",78,78,23,"18","Female","Belgium","Somewhat happy","<img src='images/blue25.png'></img>","Negative valence","77","gambleLoss","25","175","270","39","undefined","undefined","undefined","210372"
"78",79,79,23,"18","Female","Belgium","Somewhat happy","<img src='images/purple0.png'></img>","Negative valence","78","nonGamble","25","137","264","38","undefined","undefined","undefined","211777"
"79",80,80,23,"18","Female","Belgium","Somewhat happy","<img src='images/yellow25.png'></img>","Negative valence","79","gambleLoss","25","269","270","37","undefined","undefined","undefined","213320"
"80",81,81,23,"18","Female","Belgium","Somewhat happy","<img src='images/purple0.png'></img>","Negative valence","80","nonGamble","25","141","252","38","undefined","undefined","undefined","214718"
"81",82,82,23,"18","Female","Belgium","Somewhat happy","<img src='images/green25.png'></img>","Negative valence","81","gambleLoss","25","250","357","39","undefined","undefined","undefined","216329"
"82",83,83,23,"18","Female","Belgium","Somewhat happy","<img src='images/yellow25.png'></img>","Negative valence","82","gambleWin","25","177","343","39","undefined","undefined","undefined","217853"
"83",84,84,23,"18","Female","Belgium","Somewhat happy","<img src='images/green25.png'></img>","Negative valence","83","gambleWin","25","244","276","39","undefined","undefined","undefined","219379"
"84",85,85,23,"18","Female","Belgium","Somewhat happy","<img src='images/yellow25.png'></img>","Negative valence","84","gambleLoss","25","268","299","39","undefined","undefined","undefined","220951"
"85",86,86,23,"18","Female","Belgium","Somewhat happy","<img src='images/yellow25.png'></img>","Negative valence","85","gambleWin","25","59","305","39","undefined","undefined","undefined","222319"
"86",87,87,23,"18","Female","Belgium","Somewhat happy","<img src='images/green25.png'></img>","Negative valence","86","gambleWin","25","456","358","39","undefined","undefined","undefined","224136"
"87",88,88,23,"18","Female","Belgium","Somewhat happy","<img src='images/orange25.png'></img>","Negative valence","87","gambleWin","25","253","412","39","undefined","undefined","undefined","225805"
"88",89,89,23,"18","Female","Belgium","Somewhat happy","<img src='images/purple0.png'></img>","Negative valence","88","nonGamble","25","292","761","40","undefined","undefined","undefined","227862"
"89",90,90,23,"18","Female","Belgium","Somewhat happy","<img src='images/purple0.png'></img>","Negative valence","89","nonGamble","25","162","639","38","undefined","undefined","undefined","229666"
"90",91,91,23,"18","Female","Belgium","Somewhat happy","<img src='images/purple0.png'></img>","Negative valence","90","nonGamble","25","283","736","40","undefined","undefined","undefined","231688"
"91",92,92,23,"18","Female","Belgium","Somewhat happy","<img src='images/blue25.png'></img>","Negative valence","91","gambleLoss","25","26","321","39","undefined","undefined","undefined","233039"
"92",93,93,23,"18","Female","Belgium","Somewhat happy","<img src='images/purple0.png'></img>","Negative valence","92","nonGamble","25","206","378","38","undefined","undefined","undefined","234627"
"93",94,94,23,"18","Female","Belgium","Somewhat happy","<img src='images/purple0.png'></img>","Negative valence","93","nonGamble","25","271","622","40","undefined","undefined","undefined","236525"
"94",95,95,23,"18","Female","Belgium","Somewhat happy","<img src='images/purple0.png'></img>","Negative valence","94","nonGamble","25","279","610","40","undefined","undefined","undefined","238418"
"95",96,96,23,"18","Female","Belgium","Somewhat happy","<img src='images/orange25.png'></img>","Negative valence","95","gambleLoss","25","256","309","39","undefined","undefined","undefined","239988"
"96",97,97,23,"18","Female","Belgium","Somewhat happy","<img src='images/orange25.png'></img>","Negative valence","96","gambleLoss","25","264","277","39","undefined","undefined","undefined","241534"
"97",98,98,23,"18","Female","Belgium","Somewhat happy","<img src='images/purple0.png'></img>","Negative valence","97","nonGamble","25","152","676","40","undefined","undefined","undefined","243366"
"98",99,99,23,"18","Female","Belgium","Somewhat happy","<img src='images/orange25.png'></img>","Negative valence","98","gambleLoss","25","295","295","39","undefined","undefined","undefined","244972"
"99",100,100,23,"18","Female","Belgium","Somewhat happy","<img src='images/orange25.png'></img>","Negative valence","99","gambleWin","25","276","198","39","undefined","undefined","undefined","246449"
"100",101,101,23,"18","Female","Belgium","Somewhat happy","<img src='images/purple0.png'></img>","Negative valence","100","nonGamble","25","246","593","40","undefined","undefined","undefined","248293"
"101",102,102,23,"18","Female","Belgium","Somewhat happy","<img src='images/purple0.png'></img>","Negative valence","101","nonGamble","25","12","545","40","undefined","undefined","undefined","249854"
"102",103,103,23,"18","Female","Belgium","Somewhat happy","<img src='images/green25.png'></img>","Negative valence","102","gambleLoss","25","14","303","39","undefined","undefined","undefined","251176"
"103",104,104,23,"18","Female","Belgium","Somewhat happy","<img src='images/blue25.png'></img>","Negative valence","103","gambleLoss","25","14","236","39","undefined","undefined","undefined","252429"
"104",105,105,23,"18","Female","Belgium","Somewhat happy","<img src='images/orange25.png'></img>","Negative valence","104","gambleWin","25","346","262","37","undefined","undefined","undefined","254042"
"105",106,106,23,"18","Female","Belgium","Somewhat happy","<img src='images/green25.png'></img>","Negative valence","105","gambleLoss","25","259","256","37","undefined","undefined","undefined","255561"
"106",107,107,23,"18","Female","Belgium","Somewhat happy","<img src='images/yellow25.png'></img>","Negative valence","106","gambleLoss","25","253","229","37","undefined","undefined","undefined","257047"
"107",108,108,23,"18","Female","Belgium","Somewhat happy","<img src='images/orange25.png'></img>","Negative valence","107","gambleWin","25","20","217","39","undefined","undefined","undefined","258289"
"108",109,109,23,"18","Female","Belgium","Somewhat happy","<img src='images/yellow25.png'></img>","Negative valence","108","gambleLoss","25","246","196","39","undefined","undefined","undefined","259735"
"109",110,110,23,"18","Female","Belgium","Somewhat happy","<img src='images/blue25.png'></img>","Negative valence","109","gambleWin","25","59","216","37","undefined","undefined","undefined","261014"
"110",111,111,23,"18","Female","Belgium","Somewhat happy","<img src='images/orange25.png'></img>","Negative valence","110","gambleLoss","25","128","203","37","undefined","undefined","undefined","262349"
"111",112,112,23,"18","Female","Belgium","Somewhat happy","<img src='images/purple0.png'></img>","Negative valence","111","nonGamble","25","230","709","40","undefined","undefined","undefined","264292"
"112",113,113,23,"18","Female","Belgium","Somewhat happy","<img src='images/green25.png'></img>","Negative valence","112","gambleWin","25","122","406","39","undefined","undefined","undefined","265823"
"113",114,114,23,"18","Female","Belgium","Somewhat happy","<img src='images/purple0.png'></img>","Negative valence","113","nonGamble","25","70","569","40","undefined","undefined","undefined","267466"
"114",115,115,23,"18","Female","Belgium","Somewhat happy","<img src='images/blue25.png'></img>","Negative valence","114","gambleWin","25","206","243","39","undefined","undefined","undefined","268919"
"115",116,116,23,"18","Female","Belgium","Somewhat happy","<img src='images/blue25.png'></img>","Negative valence","115","gambleWin","25","185","283","39","undefined","undefined","undefined","270391"
"116",117,117,23,"18","Female","Belgium","Somewhat happy","<img src='images/yellow25.png'></img>","Negative valence","116","gambleLoss","25","208","317","39","undefined","undefined","undefined","271921"
"117",118,118,23,"18","Female","Belgium","Somewhat happy","<img src='images/green25.png'></img>","Negative valence","117","gambleWin","25","169","267","37","undefined","undefined","undefined","273362"
"118",119,119,23,"18","Female","Belgium","Somewhat happy","<img src='images/purple0.png'></img>","Negative valence","118","nonGamble","25","214","518","40","undefined","undefined","undefined","275098"
"119",120,120,23,"18","Female","Belgium","Somewhat happy","<img src='images/green25.png'></img>","Negative valence","119","gambleLoss","25","265","305","39","undefined","undefined","undefined","276680"
"120",121,121,23,"18","Female","Belgium","Somewhat happy","<img src='images/purple0.png'></img>","Negative valence","120","nonGamble","25","86","211","38","undefined","undefined","undefined","277982"
"121",122,122,23,"18","Female","Belgium","Somewhat happy","<img src='images/purple0.png'></img>","Positive valence","121","nonGamble","25","1315","850","40","undefined","undefined","undefined","299827"
"122",123,123,23,"18","Female","Belgium","Somewhat happy","<img src='images/orange25.png'></img>","Positive valence","122","gambleWin","25","27","230","39","undefined","undefined","undefined","301089"
"123",124,124,23,"18","Female","Belgium","Somewhat happy","<img src='images/green25.png'></img>","Positive valence","123","gambleWin","25","203","226","39","undefined","undefined","undefined","302524"
"124",125,125,23,"18","Female","Belgium","Somewhat happy","<img src='images/yellow25.png'></img>","Positive valence","124","gambleWin","25","46","481","39","undefined","undefined","undefined","304062"
"125",126,126,23,"18","Female","Belgium","Somewhat happy","<img src='images/green25.png'></img>","Positive valence","125","gambleLoss","25","313","452","39","undefined","undefined","undefined","305832"
"126",127,127,23,"18","Female","Belgium","Somewhat happy","<img src='images/blue25.png'></img>","Positive valence","126","gambleWin","25","238","284","37","undefined","undefined","undefined","307369"
"127",128,128,23,"18","Female","Belgium","Somewhat happy","<img src='images/orange25.png'></img>","Positive valence","127","gambleLoss","25","116","228","37","undefined","undefined","undefined","308732"
"128",129,129,23,"18","Female","Belgium","Somewhat happy","<img src='images/blue25.png'></img>","Positive valence","128","gambleLoss","25","240","321","37","undefined","undefined","undefined","310312"
"129",130,130,23,"18","Female","Belgium","Somewhat happy","<img src='images/purple0.png'></img>","Positive valence","129","nonGamble","25","170","723","40","undefined","undefined","undefined","312222"
"130",131,131,23,"18","Female","Belgium","Somewhat happy","<img src='images/yellow25.png'></img>","Positive valence","130","gambleWin","25","194","210","39","undefined","undefined","undefined","313642"
"131",132,132,23,"18","Female","Belgium","Somewhat happy","<img src='images/yellow25.png'></img>","Positive valence","131","gambleWin","25","73","233","39","undefined","undefined","undefined","314955"
"132",133,133,23,"18","Female","Belgium","Somewhat happy","<img src='images/purple0.png'></img>","Positive valence","132","nonGamble","25","38","753","40","undefined","undefined","undefined","316757"
"133",134,134,23,"18","Female","Belgium","Somewhat happy","<img src='images/purple0.png'></img>","Positive valence","133","nonGamble","25","212","850","40","undefined","undefined","undefined","318825"
"134",135,135,23,"18","Female","Belgium","Somewhat happy","<img src='images/blue25.png'></img>","Positive valence","134","gambleWin","25","199","276","39","undefined","undefined","undefined","320317"
"135",136,136,23,"18","Female","Belgium","Somewhat happy","<img src='images/blue25.png'></img>","Positive valence","135","gambleLoss","25","199","268","39","undefined","undefined","undefined","321793"
"136",137,137,23,"18","Female","Belgium","Somewhat happy","<img src='images/purple0.png'></img>","Positive valence","136","nonGamble","25","223","394","38","undefined","undefined","undefined","323417"
"137",138,138,23,"18","Female","Belgium","Somewhat happy","<img src='images/blue25.png'></img>","Positive valence","137","gambleLoss","25","44","245","39","undefined","undefined","undefined","324710"
"138",139,139,23,"18","Female","Belgium","Somewhat happy","<img src='images/purple0.png'></img>","Positive valence","138","nonGamble","25","124","252","40","undefined","undefined","undefined","326090"
"139",140,140,23,"18","Female","Belgium","Somewhat happy","<img src='images/yellow25.png'></img>","Positive valence","139","gambleLoss","25","135","228","39","undefined","undefined","undefined","327459"
"140",141,141,23,"18","Female","Belgium","Somewhat happy","<img src='images/purple0.png'></img>","Positive valence","140","nonGamble","25","225","235","38","undefined","undefined","undefined","328923"
"141",142,142,23,"18","Female","Belgium","Somewhat happy","<img src='images/green25.png'></img>","Positive valence","141","gambleLoss","25","267","310","39","undefined","undefined","undefined","330505"
"142",143,143,23,"18","Female","Belgium","Somewhat happy","<img src='images/yellow25.png'></img>","Positive valence","142","gambleWin","25","84","1193","39","undefined","undefined","undefined","332787"
"143",144,144,23,"18","Female","Belgium","Somewhat happy","<img src='images/green25.png'></img>","Positive valence","143","gambleWin","25","21","251","39","undefined","undefined","undefined","334063"
"144",145,145,23,"18","Female","Belgium","Somewhat happy","<img src='images/yellow25.png'></img>","Positive valence","144","gambleLoss","25","125","255","39","undefined","undefined","undefined","335447"
"145",146,146,23,"18","Female","Belgium","Somewhat happy","<img src='images/yellow25.png'></img>","Positive valence","145","gambleWin","25","213","861","39","undefined","undefined","undefined","337525"
"146",147,147,23,"18","Female","Belgium","Somewhat happy","<img src='images/green25.png'></img>","Positive valence","146","gambleWin","25","119","258","39","undefined","undefined","undefined","338906"
"147",148,148,23,"18","Female","Belgium","Somewhat happy","<img src='images/orange25.png'></img>","Positive valence","147","gambleWin","25","28","232","39","undefined","undefined","undefined","340172"
"148",149,149,23,"18","Female","Belgium","Somewhat happy","<img src='images/purple0.png'></img>","Positive valence","148","nonGamble","25","113","594","40","undefined","undefined","undefined","341882"
"149",150,150,23,"18","Female","Belgium","Somewhat happy","<img src='images/purple0.png'></img>","Positive valence","149","nonGamble","25","266","644","40","undefined","undefined","undefined","343797"
"150",151,151,23,"18","Female","Belgium","Somewhat happy","<img src='images/purple0.png'></img>","Positive valence","150","nonGamble","25","94","604","40","undefined","undefined","undefined","345500"
"151",152,152,23,"18","Female","Belgium","Somewhat happy","<img src='images/blue25.png'></img>","Positive valence","151","gambleLoss","25","281","554","39","undefined","undefined","undefined","347339"
"152",153,153,23,"18","Female","Belgium","Somewhat happy","<img src='images/purple0.png'></img>","Positive valence","152","nonGamble","25","311","333","38","undefined","undefined","undefined","348987"
"153",154,154,23,"18","Female","Belgium","Somewhat happy","<img src='images/purple0.png'></img>","Positive valence","153","nonGamble","25","328","597","40","undefined","undefined","undefined","350917"
"154",155,155,23,"18","Female","Belgium","Somewhat happy","<img src='images/purple0.png'></img>","Positive valence","154","nonGamble","25","267","611","40","undefined","undefined","undefined","352806"
"155",156,156,23,"18","Female","Belgium","Somewhat happy","<img src='images/orange25.png'></img>","Positive valence","155","gambleLoss","25","289","364","39","undefined","undefined","undefined","354464"
"156",157,157,23,"18","Female","Belgium","Somewhat happy","<img src='images/orange25.png'></img>","Positive valence","156","gambleLoss","25","175","275","39","undefined","undefined","undefined","355919"
"157",158,158,23,"18","Female","Belgium","Somewhat happy","<img src='images/purple0.png'></img>","Positive valence","157","nonGamble","25","224","674","40","undefined","undefined","undefined","357834"
"158",159,159,23,"18","Female","Belgium","Somewhat happy","<img src='images/orange25.png'></img>","Positive valence","158","gambleLoss","25","320","316","37","undefined","undefined","undefined","359474"
"159",160,160,23,"18","Female","Belgium","Somewhat happy","<img src='images/orange25.png'></img>","Positive valence","159","gambleWin","25","258","493","39","undefined","undefined","undefined","361229"
"160",161,161,23,"18","Female","Belgium","Somewhat happy","<img src='images/purple0.png'></img>","Positive valence","160","nonGamble","25","253","488","40","undefined","undefined","undefined","362973"
"161",162,162,23,"18","Female","Belgium","Somewhat happy","<img src='images/purple0.png'></img>","Positive valence","161","nonGamble","25","287","613","40","undefined","undefined","undefined","364878"
"162",163,163,23,"18","Female","Belgium","Somewhat happy","<img src='images/green25.png'></img>","Positive valence","162","gambleLoss","25","49","350","39","undefined","undefined","undefined","366281"
"163",164,164,23,"18","Female","Belgium","Somewhat happy","<img src='images/blue25.png'></img>","Positive valence","163","gambleLoss","25","355","636","37","undefined","undefined","undefined","368276"
"164",165,165,23,"18","Female","Belgium","Somewhat happy","<img src='images/orange25.png'></img>","Positive valence","164","gambleWin","25","281","424","39","undefined","undefined","undefined","369986"
"165",166,166,23,"18","Female","Belgium","Somewhat happy","<img src='images/green25.png'></img>","Positive valence","165","gambleLoss","25","926","338","39","undefined","undefined","undefined","372254"
"166",167,167,23,"18","Female","Belgium","Somewhat happy","<img src='images/yellow25.png'></img>","Positive valence","166","gambleLoss","25","228","263","37","undefined","undefined","undefined","373751"
"167",168,168,23,"18","Female","Belgium","Somewhat happy","<img src='images/orange25.png'></img>","Positive valence","167","gambleWin","25","108","241","39","undefined","undefined","undefined","375103"
"168",169,169,23,"18","Female","Belgium","Somewhat happy","<img src='images/yellow25.png'></img>","Positive valence","168","gambleLoss","25","294","297","39","undefined","undefined","undefined","376699"
"169",170,170,23,"18","Female","Belgium","Somewhat happy","<img src='images/blue25.png'></img>","Positive valence","169","gambleWin","25","213","270","37","undefined","undefined","undefined","378190"
"170",171,171,23,"18","Female","Belgium","Somewhat happy","<img src='images/orange25.png'></img>","Positive valence","170","gambleLoss","25","352","210","37","undefined","undefined","undefined","379755"
"171",172,172,23,"18","Female","Belgium","Somewhat happy","<img src='images/purple0.png'></img>","Positive valence","171","nonGamble","25","57","810","40","undefined","undefined","undefined","381627"
"172",173,173,23,"18","Female","Belgium","Somewhat happy","<img src='images/green25.png'></img>","Positive valence","172","gambleWin","25","236","302","39","undefined","undefined","undefined","383168"
"173",174,174,23,"18","Female","Belgium","Somewhat happy","<img src='images/purple0.png'></img>","Positive valence","173","nonGamble","25","229","611","40","undefined","undefined","undefined","385014"
"174",175,175,23,"18","Female","Belgium","Somewhat happy","<img src='images/blue25.png'></img>","Positive valence","174","gambleWin","25","129","269","39","undefined","undefined","undefined","386417"
"175",176,176,23,"18","Female","Belgium","Somewhat happy","<img src='images/blue25.png'></img>","Positive valence","175","gambleWin","25","317","243","39","undefined","undefined","undefined","387981"
"176",177,177,23,"18","Female","Belgium","Somewhat happy","<img src='images/yellow25.png'></img>","Positive valence","176","gambleLoss","25","294","219","39","undefined","undefined","undefined","389500"
"177",178,178,23,"18","Female","Belgium","Somewhat happy","<img src='images/green25.png'></img>","Positive valence","177","gambleWin","25","108","247","39","undefined","undefined","undefined","390861"
"178",179,179,23,"18","Female","Belgium","Somewhat happy","<img src='images/purple0.png'></img>","Positive valence","178","nonGamble","25","34","762","40","undefined","undefined","undefined","392661"
"179",180,180,23,"18","Female","Belgium","Somewhat happy","<img src='images/green25.png'></img>","Positive valence","179","gambleLoss","25","292","373","39","undefined","undefined","undefined","394330"
"180",181,181,23,"18","Female","Belgium","Somewhat happy","<img src='images/purple0.png'></img>","Positive valence","180","nonGamble","25","149","666","40","undefined","undefined","undefined","396151"
"181",182,182,23,"18","Female","Belgium","Somewhat happy","undefined","undefined","undefined","undefined","undefined","undefined","8936","undefined","2","Perseverance","undefined","406505"
"182",183,183,23,"18","Female","Belgium","Somewhat happy","undefined","undefined","undefined","undefined","undefined","undefined","4627","undefined","2","Premeditation","undefined","411135"
"183",184,184,23,"18","Female","Belgium","Somewhat happy","undefined","undefined","undefined","undefined","undefined","undefined","15262","undefined","2","Positive Urgency","undefined","426401"
"184",185,185,23,"18","Female","Belgium","Somewhat happy","undefined","undefined","undefined","undefined","undefined","undefined","4087","undefined","1","Perseverance","undefined","430489"
"185",186,186,23,"18","Female","Belgium","Somewhat happy","undefined","undefined","undefined","undefined","undefined","undefined","4794","undefined","2","Premeditation","undefined","435285"
"186",187,187,23,"18","Female","Belgium","Somewhat happy","undefined","undefined","undefined","undefined","undefined","undefined","1562","undefined","3","Negative Urgency","undefined","436849"
"187",188,188,23,"18","Female","Belgium","Somewhat happy","undefined","undefined","undefined","undefined","undefined","undefined","1522","undefined","2","Perseverance","undefined","438373"
"188",189,189,23,"18","Female","Belgium","Somewhat happy","undefined","undefined","undefined","undefined","undefined","undefined","10070","undefined","3","Negative Urgency","undefined","448445"
"189",190,190,23,"18","Female","Belgium","Somewhat happy","undefined","undefined","undefined","undefined","undefined","undefined","3891","undefined","1","Sensation Seeking","undefined","452337"
"190",191,191,23,"18","Female","Belgium","Somewhat happy","undefined","undefined","undefined","undefined","undefined","undefined","5598","undefined","1","Positive Urgency","undefined","457937"
"191",192,192,23,"18","Female","Belgium","Somewhat happy","undefined","undefined","undefined","undefined","undefined","undefined","3522","undefined","1","Perseverance","undefined","461460"
"192",193,193,23,"18","Female","Belgium","Somewhat happy","undefined","undefined","undefined","undefined","undefined","undefined","4051","undefined","2","Premeditation","undefined","465512"
"193",194,194,23,"18","Female","Belgium","Somewhat happy","undefined","undefined","undefined","undefined","undefined","undefined","5859","undefined","3","Negative Urgency","undefined","471372"
"194",195,195,23,"18","Female","Belgium","Somewhat happy","undefined","undefined","undefined","undefined","undefined","undefined","1146","undefined","3","Sensation Seeking","undefined","472520"
"195",196,196,23,"18","Female","Belgium","Somewhat happy","undefined","undefined","undefined","undefined","undefined","undefined","1755","undefined","3","Negative Urgency","undefined","474276"
"196",197,197,23,"18","Female","Belgium","Somewhat happy","undefined","undefined","undefined","undefined","undefined","undefined","1663","undefined","3","Sensation Seeking","undefined","475940"
"197",198,198,23,"18","Female","Belgium","Somewhat happy","undefined","undefined","undefined","undefined","undefined","undefined","1155","undefined","3","Positive Urgency","undefined","477096"
"198",199,199,23,"18","Female","Belgium","Somewhat happy","undefined","undefined","undefined","undefined","undefined","undefined","1014","undefined","3","Sensation Seeking","undefined","478112"
"199",200,200,23,"18","Female","Belgium","Somewhat happy","undefined","undefined","undefined","undefined","undefined","undefined","1094","undefined","2","Premeditation","undefined","479208"
"200",201,201,23,"18","Female","Belgium","Somewhat happy","undefined","undefined","undefined","undefined","undefined","undefined","922","undefined","3","Positive Urgency","undefined","480133"
"201",202,202,23,"Age","Gender","Nationality","Feelings","stimulus","block_number","trial_number","outcome","amount","startRT","RT","key_press","resp","factor","color","time_elapsed"
"202",203,203,23,"18","Female","Belgium","Somewhat happy","<img src='images/purple0.png'></img>","No music","1","nonGamble","25","417","1529","40","undefined","undefined","undefined","69719"
"203",204,204,23,"18","Female","Belgium","Somewhat happy","<img src='images/purple0.png'></img>","No music","2","nonGamble","25","227","772","40","undefined","undefined","undefined","71728"
"204",205,205,23,"18","Female","Belgium","Somewhat happy","<img src='images/purple0.png'></img>","No music","3","nonGamble","25","263","346","40","undefined","undefined","undefined","73340"
"205",206,206,23,"18","Female","Belgium","Somewhat happy","<img src='images/orange25.png'></img>","No music","4","gambleWin","25","381","1186","39","undefined","undefined","undefined","75911"
"206",207,207,23,"18","Female","Belgium","Somewhat happy","<img src='images/yellow25.png'></img>","No music","5","gambleLoss","25","4946","678","39","undefined","undefined","undefined","82539"
"207",208,208,23,"18","Female","Belgium","Somewhat happy","<img src='images/orange25.png'></img>","No music","6","gambleLoss","25","213","418","39","undefined","undefined","undefined","84173"
"208",209,209,23,"18","Female","Belgium","Somewhat happy","<img src='images/blue25.png'></img>","No music","7","gambleWin","25","1099","470","39","undefined","undefined","undefined","86745"
"209",210,210,23,"18","Female","Belgium","Somewhat happy","<img src='images/purple0.png'></img>","No music","8","nonGamble","25","1162","764","40","undefined","undefined","undefined","89674"
"210",211,211,23,"18","Female","Belgium","Somewhat happy","<img src='images/purple0.png'></img>","No music","9","nonGamble","25","1329","421","40","undefined","undefined","undefined","92428"
"211",212,212,23,"18","Female","Belgium","Somewhat happy","<img src='images/orange25.png'></img>","No music","10","gambleWin","25","292","775","39","undefined","undefined","undefined","94497"
"212",213,213,23,"18","Female","Belgium","Somewhat happy","<img src='images/yellow25.png'></img>","No music","11","gambleWin","25","247","1173","39","undefined","undefined","undefined","96919"
"213",214,214,23,"18","Female","Belgium","Somewhat happy","<img src='images/purple0.png'></img>","No music","12","nonGamble","25","2388","972","40","undefined","undefined","undefined","101284"
"214",215,215,23,"18","Female","Belgium","Somewhat happy","<img src='images/blue25.png'></img>","No music","13","gambleLoss","25","1984","401","39","undefined","undefined","undefined","104672"
"215",216,216,23,"18","Female","Belgium","Somewhat happy","<img src='images/blue25.png'></img>","No music","14","gambleLoss","25","822","301","39","undefined","undefined","undefined","106799"
"216",217,217,23,"18","Female","Belgium","Somewhat happy","<img src='images/yellow25.png'></img>","No music","15","gambleLoss","25","657","409","39","undefined","undefined","undefined","108868"
"217",218,218,23,"18","Female","Belgium","Somewhat happy","<img src='images/green25.png'></img>","No music","16","gambleWin","25","1174","227","39","undefined","undefined","undefined","111272"
"218",219,219,23,"18","Female","Belgium","Somewhat happy","<img src='images/yellow25.png'></img>","No music","17","gambleLoss","25","1780","326","39","undefined","undefined","undefined","114381"
"219",220,220,23,"18","Female","Belgium","Somewhat happy","<img src='images/orange25.png'></img>","No music","18","gambleLoss","25","326","483","37","undefined","undefined","undefined","116194"
"220",221,221,23,"18","Female","Belgium","Somewhat happy","<img src='images/purple0.png'></img>","No music","19","nonGamble","25","384","723","40","undefined","undefined","undefined","118304"
"221",222,222,23,"18","Female","Belgium","Somewhat happy","<img src='images/orange25.png'></img>","No music","20","gambleLoss","25","240","928","39","undefined","undefined","undefined","120476"
"222",223,223,23,"18","Female","Belgium","Somewhat happy","<img src='images/orange25.png'></img>","No music","21","gambleLoss","25","447","776","39","undefined","undefined","undefined","122702"
"223",224,224,23,"18","Female","Belgium","Somewhat happy","<img src='images/purple0.png'></img>","No music","22","nonGamble","25","959","197","40","undefined","undefined","undefined","124862"
"224",225,225,23,"18","Female","Belgium","Somewhat happy","<img src='images/green25.png'></img>","No music","23","gambleLoss","25","727","570","39","undefined","undefined","undefined","127161"
"225",226,226,23,"18","Female","Belgium","Somewhat happy","<img src='images/orange25.png'></img>","No music","24","gambleWin","25","1560","314","39","undefined","undefined","undefined","130039"
"226",227,227,23,"18","Female","Belgium","Somewhat happy","<img src='images/purple0.png'></img>","No music","25","nonGamble","25","1018","1422","40","undefined","undefined","undefined","133483"
"227",228,228,23,"18","Female","Belgium","Somewhat happy","<img src='images/purple0.png'></img>","No music","26","nonGamble","25","2404","299","40","undefined","undefined","undefined","137189"
"228",229,229,23,"18","Female","Belgium","Somewhat happy","<img src='images/green25.png'></img>","No music","27","gambleLoss","25","349","319","39","undefined","undefined","undefined","138861"
"229",230,230,23,"18","Female","Belgium","Somewhat happy","<img src='images/green25.png'></img>","No music","28","gambleLoss","25","574","1124","39","undefined","undefined","undefined","141562"
"230",231,231,23,"18","Female","Belgium","Somewhat happy","<img src='images/green25.png'></img>","No music","29","gambleWin","25","258","1400","39","undefined","undefined","undefined","144224"
"231",232,232,23,"18","Female","Belgium","Somewhat happy","<img src='images/orange25.png'></img>","No music","30","gambleWin","25","1659","325","39","undefined","undefined","undefined","147209"
"232",233,233,23,"18","Female","Belgium","Somewhat happy","<img src='images/yellow25.png'></img>","No music","31","gambleWin","25","1118","2473","39","undefined","undefined","undefined","151803"
"233",234,234,23,"18","Female","Belgium","Somewhat happy","<img src='images/purple0.png'></img>","No music","32","nonGamble","25","1527","483","40","undefined","undefined","undefined","154817"
"234",235,235,23,"18","Female","Belgium","Somewhat happy","<img src='images/orange25.png'></img>","No music","33","gambleWin","25","631","903","39","undefined","undefined","undefined","157354"
"235",236,236,23,"18","Female","Belgium","Somewhat happy","<img src='images/purple0.png'></img>","No music","34","nonGamble","25","364","623","40","undefined","undefined","undefined","159344"
"236",237,237,23,"18","Female","Belgium","Somewhat happy","<img src='images/yellow25.png'></img>","No music","35","gambleWin","25","2996","885","39","undefined","undefined","undefined","164229"
"237",238,238,23,"18","Female","Belgium","Somewhat happy","<img src='images/purple0.png'></img>","No music","36","nonGamble","25","424","313","40","undefined","undefined","undefined","165972"
"238",239,239,23,"18","Female","Belgium","Somewhat happy","<img src='images/purple0.png'></img>","No music","37","nonGamble","25","2237","195","40","undefined","undefined","undefined","169406"
"239",240,240,23,"18","Female","Belgium","Somewhat happy","<img src='images/blue25.png'></img>","No music","38","gambleWin","25","388","340","39","undefined","undefined","undefined","171138"
"240",241,241,23,"18","Female","Belgium","Somewhat happy","<img src='images/purple0.png'></img>","No music","39","nonGamble","25","3310","927","40","undefined","undefined","undefined","176377"
"241",242,242,23,"18","Female","Belgium","Somewhat happy","<img src='images/green25.png'></img>","No music","40","gambleWin","25","249","1123","39","undefined","undefined","undefined","178752"
"242",243,243,23,"18","Female","Belgium","Somewhat happy","<img src='images/green25.png'></img>","No music","41","gambleWin","25","427","332","39","undefined","undefined","undefined","180514"
"243",244,244,23,"18","Female","Belgium","Somewhat happy","<img src='images/purple0.png'></img>","No music","42","nonGamble","25","1913","2133","40","undefined","undefined","undefined","185562"
"244",245,245,23,"18","Female","Belgium","Somewhat happy","<img src='images/yellow25.png'></img>","No music","43","gambleWin","25","612","594","39","undefined","undefined","undefined","187771"
"245",246,246,23,"18","Female","Belgium","Somewhat happy","<img src='images/purple0.png'></img>","No music","44","nonGamble","25","1828","440","40","undefined","undefined","undefined","191043"
"246",247,247,23,"18","Female","Belgium","Somewhat happy","<img src='images/blue25.png'></img>","No music","45","gambleLoss","25","923","333","39","undefined","undefined","undefined","193302"
"247",248,248,23,"18","Female","Belgium","Somewhat happy","<img src='images/green25.png'></img>","No music","46","gambleLoss","25","544","316","39","undefined","undefined","undefined","195164"
"248",249,249,23,"18","Female","Belgium","Somewhat happy","<img src='images/blue25.png'></img>","No music","47","gambleWin","25","172","288","39","undefined","undefined","undefined","196627"
"249",250,250,23,"18","Female","Belgium","Somewhat happy","<img src='images/blue25.png'></img>","No music","48","gambleLoss","25","9451","319","39","undefined","undefined","undefined","207401"
"250",251,251,23,"18","Female","Belgium","Somewhat happy","<img src='images/green25.png'></img>","No music","49","gambleLoss","25","440","9401","39","undefined","undefined","undefined","218246"
"251",252,252,23,"18","Female","Belgium","Somewhat happy","<img src='images/blue25.png'></img>","No music","50","gambleWin","25","1478","296","39","undefined","undefined","undefined","221024"
"252",253,253,23,"18","Female","Belgium","Somewhat happy","<img src='images/blue25.png'></img>","No music","51","gambleLoss","25","408","281","39","undefined","undefined","undefined","222716"
"253",254,254,23,"18","Female","Belgium","Somewhat happy","<img src='images/purple0.png'></img>","No music","52","nonGamble","25","363","922","40","undefined","undefined","undefined","225003"
"254",255,255,23,"18","Female","Belgium","Somewhat happy","<img src='images/purple0.png'></img>","No music","53","nonGamble","25","685","899","40","undefined","undefined","undefined","227590"
"255",256,256,23,"18","Female","Belgium","Somewhat happy","<img src='images/purple0.png'></img>","No music","54","nonGamble","25","13437","952","40","undefined","undefined","undefined","242984"
"256",257,257,23,"18","Female","Belgium","Somewhat happy","<img src='images/yellow25.png'></img>","No music","55","gambleLoss","25","2607","443","37","undefined","undefined","undefined","247038"
"257",258,258,23,"18","Female","Belgium","Somewhat happy","<img src='images/yellow25.png'></img>","No music","56","gambleWin","25","1066","5721","39","undefined","undefined","undefined","254828"
"258",259,259,23,"18","Female","Belgium","Somewhat happy","<img src='images/green25.png'></img>","No music","57","gambleWin","25","597","179","39","undefined","undefined","undefined","256607"
"259",260,260,23,"18","Female","Belgium","Somewhat happy","<img src='images/orange25.png'></img>","No music","58","gambleLoss","25","1872","759","39","undefined","undefined","undefined","260241"
"260",261,261,23,"18","Female","Belgium","Somewhat happy","<img src='images/blue25.png'></img>","No music","59","gambleWin","25","4005","570","39","undefined","undefined","undefined","265821"
"261",262,262,23,"18","Female","Belgium","Somewhat happy","<img src='images/yellow25.png'></img>","No music","60","gambleLoss","25","3350","946","39","undefined","undefined","undefined","271120"
"262",263,263,23,"18","Female","Belgium","Somewhat happy","<img src='images/purple0.png'></img>","Negative valence","61","nonGamble","25","54084","546","40","undefined","undefined","undefined","348523"
"263",264,264,23,"18","Female","Belgium","Somewhat happy","<img src='images/purple0.png'></img>","Negative valence","62","nonGamble","25","65","557","40","undefined","undefined","undefined","350149"
"264",265,265,23,"18","Female","Belgium","Somewhat happy","<img src='images/purple0.png'></img>","Negative valence","63","nonGamble","25","83","10","38","undefined","undefined","undefined","351245"
"265",266,266,23,"18","Female","Belgium","Somewhat happy","<img src='images/orange25.png'></img>","Negative valence","64","gambleWin","25","250","438","39","undefined","undefined","undefined","352935"
"266",267,267,23,"18","Female","Belgium","Somewhat happy","<img src='images/yellow25.png'></img>","Negative valence","65","gambleLoss","25","195","305","39","undefined","undefined","undefined","354439"
"267",268,268,23,"18","Female","Belgium","Somewhat happy","<img src='images/orange25.png'></img>","Negative valence","66","gambleLoss","25","169","324","39","undefined","undefined","undefined","355935"
"268",269,269,23,"18","Female","Belgium","Somewhat happy","<img src='images/blue25.png'></img>","Negative valence","67","gambleWin","25","360","252","39","undefined","undefined","undefined","357550"
"269",270,270,23,"18","Female","Belgium","Somewhat happy","<img src='images/purple0.png'></img>","Negative valence","68","nonGamble","25","293","756","40","undefined","undefined","undefined","359602"
"270",271,271,23,"18","Female","Belgium","Somewhat happy","<img src='images/purple0.png'></img>","Negative valence","69","nonGamble","25","314","505","40","undefined","undefined","undefined","361424"
"271",272,272,23,"18","Female","Belgium","Somewhat happy","<img src='images/orange25.png'></img>","Negative valence","70","gambleWin","25","415","244","39","undefined","undefined","undefined","363086"
"272",273,273,23,"18","Female","Belgium","Somewhat happy","<img src='images/yellow25.png'></img>","Negative valence","71","gambleWin","25","222","1024","39","undefined","undefined","undefined","365335"
"273",274,274,23,"18","Female","Belgium","Somewhat happy","<img src='images/purple0.png'></img>","Negative valence","72","nonGamble","25","460","578","40","undefined","undefined","undefined","367376"
"274",275,275,23,"18","Female","Belgium","Somewhat happy","<img src='images/blue25.png'></img>","Negative valence","73","gambleLoss","25","247","281","39","undefined","undefined","undefined","368908"
"275",276,276,23,"18","Female","Belgium","Somewhat happy","<img src='images/blue25.png'></img>","Negative valence","74","gambleLoss","25","244","331","39","undefined","undefined","undefined","370487"
"276",277,277,23,"18","Female","Belgium","Somewhat happy","<img src='images/yellow25.png'></img>","Negative valence","75","gambleLoss","25","180","212","39","undefined","undefined","undefined","371882"
"277",278,278,23,"18","Female","Belgium","Somewhat happy","<img src='images/green25.png'></img>","Negative valence","76","gambleWin","25","140","200","39","undefined","undefined","undefined","373226"
"278",279,279,23,"18","Female","Belgium","Somewhat happy","<img src='images/yellow25.png'></img>","Negative valence","77","gambleLoss","25","242","439","39","undefined","undefined","undefined","374914"
"279",280,280,23,"18","Female","Belgium","Somewhat happy","<img src='images/orange25.png'></img>","Negative valence","78","gambleLoss","25","255","242","37","undefined","undefined","undefined","376416"
"280",281,281,23,"18","Female","Belgium","Somewhat happy","<img src='images/purple0.png'></img>","Negative valence","79","nonGamble","25","139","697","40","undefined","undefined","undefined","378256"
"281",282,282,23,"18","Female","Belgium","Somewhat happy","<img src='images/orange25.png'></img>","Negative valence","80","gambleLoss","25","257","237","39","undefined","undefined","undefined","379753"
"282",283,283,23,"18","Female","Belgium","Somewhat happy","<img src='images/orange25.png'></img>","Negative valence","81","gambleLoss","25","340","225","39","undefined","undefined","undefined","381321"
"283",284,284,23,"18","Female","Belgium","Somewhat happy","<img src='images/purple0.png'></img>","Negative valence","82","nonGamble","25","335","198","40","undefined","undefined","undefined","382858"
"284",285,285,23,"18","Female","Belgium","Somewhat happy","<img src='images/green25.png'></img>","Negative valence","83","gambleLoss","25","346","666","37","undefined","undefined","undefined","384873"
"285",286,286,23,"18","Female","Belgium","Somewhat happy","<img src='images/orange25.png'></img>","Negative valence","84","gambleWin","25","609","310","39","undefined","undefined","undefined","386795"
"286",287,287,23,"18","Female","Belgium","Somewhat happy","<img src='images/purple0.png'></img>","Negative valence","85","nonGamble","25","6","535","40","undefined","undefined","undefined","388339"
"287",288,288,23,"18","Female","Belgium","Somewhat happy","<img src='images/purple0.png'></img>","Negative valence","86","nonGamble","25","450","656","40","undefined","undefined","undefined","390448"
"288",289,289,23,"18","Female","Belgium","Somewhat happy","<img src='images/green25.png'></img>","Negative valence","87","gambleLoss","25","1130","307","39","undefined","undefined","undefined","392888"
"289",290,290,23,"18","Female","Belgium","Somewhat happy","<img src='images/green25.png'></img>","Negative valence","88","gambleLoss","25","661","599","37","undefined","undefined","undefined","395152"
"290",291,291,23,"18","Female","Belgium","Somewhat happy","<img src='images/green25.png'></img>","Negative valence","89","gambleWin","25","168","286","39","undefined","undefined","undefined","396609"
"291",292,292,23,"18","Female","Belgium","Somewhat happy","<img src='images/orange25.png'></img>","Negative valence","90","gambleWin","25","100","281","39","undefined","undefined","undefined","397994"
"292",293,293,23,"18","Female","Belgium","Somewhat happy","<img src='images/yellow25.png'></img>","Negative valence","91","gambleWin","25","286","370","39","undefined","undefined","undefined","399652"
"293",294,294,23,"18","Female","Belgium","Somewhat happy","<img src='images/purple0.png'></img>","Negative valence","92","nonGamble","25","223","569","40","undefined","undefined","undefined","401447"
"294",295,295,23,"18","Female","Belgium","Somewhat happy","<img src='images/orange25.png'></img>","Negative valence","93","gambleWin","25","424","330","39","undefined","undefined","undefined","403204"
"295",296,296,23,"18","Female","Belgium","Somewhat happy","<img src='images/purple0.png'></img>","Negative valence","94","nonGamble","25","2097","1129","40","undefined","undefined","undefined","407433"
"296",297,297,23,"18","Female","Belgium","Somewhat happy","<img src='images/yellow25.png'></img>","Negative valence","95","gambleWin","25","260","379","39","undefined","undefined","undefined","409076"
"297",298,298,23,"18","Female","Belgium","Somewhat happy","<img src='images/purple0.png'></img>","Negative valence","96","nonGamble","25","285","741","40","undefined","undefined","undefined","411105"
"298",299,299,23,"18","Female","Belgium","Somewhat happy","<img src='images/purple0.png'></img>","Negative valence","97","nonGamble","25","2","472","40","undefined","undefined","undefined","412582"
"299",300,300,23,"18","Female","Belgium","Somewhat happy","<img src='images/blue25.png'></img>","Negative valence","98","gambleWin","25","227","302","39","undefined","undefined","undefined","414114"
"300",301,301,23,"18","Female","Belgium","Somewhat happy","<img src='images/purple0.png'></img>","Negative valence","99","nonGamble","25","37","543","40","undefined","undefined","undefined","415697"
"301",302,302,23,"18","Female","Belgium","Somewhat happy","<img src='images/green25.png'></img>","Negative valence","100","gambleWin","25","302","298","37","undefined","undefined","undefined","417301"
"302",303,303,23,"18","Female","Belgium","Somewhat happy","<img src='images/green25.png'></img>","Negative valence","101","gambleWin","25","33","258","37","undefined","undefined","undefined","418597"
"303",304,304,23,"18","Female","Belgium","Somewhat happy","<img src='images/purple0.png'></img>","Negative valence","102","nonGamble","25","113","544","38","undefined","undefined","undefined","420257"
"304",305,305,23,"18","Female","Belgium","Somewhat happy","<img src='images/yellow25.png'></img>","Negative valence","103","gambleWin","25","142","265","39","undefined","undefined","undefined","421669"
"305",306,306,23,"18","Female","Belgium","Somewhat happy","<img src='images/purple0.png'></img>","Negative valence","104","nonGamble","25","164","523","40","undefined","undefined","undefined","423359"
"306",307,307,23,"18","Female","Belgium","Somewhat happy","<img src='images/blue25.png'></img>","Negative valence","105","gambleLoss","25","313","332","39","undefined","undefined","undefined","425008"
"307",308,308,23,"18","Female","Belgium","Somewhat happy","<img src='images/green25.png'></img>","Negative valence","106","gambleLoss","25","293","250","39","undefined","undefined","undefined","426555"
"308",309,309,23,"18","Female","Belgium","Somewhat happy","<img src='images/blue25.png'></img>","Negative valence","107","gambleWin","25","228","297","39","undefined","undefined","undefined","428083"
"309",310,310,23,"18","Female","Belgium","Somewhat happy","<img src='images/blue25.png'></img>","Negative valence","108","gambleLoss","25","133","264","39","undefined","undefined","undefined","429483"
"310",311,311,23,"18","Female","Belgium","Somewhat happy","<img src='images/green25.png'></img>","Negative valence","109","gambleLoss","25","206","361","37","undefined","undefined","undefined","431054"
"311",312,312,23,"18","Female","Belgium","Somewhat happy","<img src='images/blue25.png'></img>","Negative valence","110","gambleWin","25","436","301","37","undefined","undefined","undefined","432795"
"312",313,313,23,"18","Female","Belgium","Somewhat happy","<img src='images/blue25.png'></img>","Negative valence","111","gambleLoss","25","124","238","37","undefined","undefined","undefined","434161"
"313",314,314,23,"18","Female","Belgium","Somewhat happy","<img src='images/purple0.png'></img>","Negative valence","112","nonGamble","25","204","598","40","undefined","undefined","undefined","435966"
"314",315,315,23,"18","Female","Belgium","Somewhat happy","<img src='images/purple0.png'></img>","Negative valence","113","nonGamble","25","669","1829","40","undefined","undefined","undefined","439466"
"315",316,316,23,"18","Female","Belgium","Somewhat happy","<img src='images/purple0.png'></img>","Negative valence","114","nonGamble","25","236","1099","40","undefined","undefined","undefined","441804"
"316",317,317,23,"18","Female","Belgium","Somewhat happy","<img src='images/yellow25.png'></img>","Negative valence","115","gambleLoss","25","158","664","39","undefined","undefined","undefined","443629"
"317",318,318,23,"18","Female","Belgium","Somewhat happy","<img src='images/yellow25.png'></img>","Negative valence","116","gambleWin","25","316","370","39","undefined","undefined","undefined","445319"
"318",319,319,23,"18","Female","Belgium","Somewhat happy","<img src='images/green25.png'></img>","Negative valence","117","gambleWin","25","90","390","39","undefined","undefined","undefined","446802"
"319",320,320,23,"18","Female","Belgium","Somewhat happy","<img src='images/orange25.png'></img>","Negative valence","118","gambleLoss","25","218","359","37","undefined","undefined","undefined","448382"
"320",321,321,23,"18","Female","Belgium","Somewhat happy","<img src='images/blue25.png'></img>","Negative valence","119","gambleWin","25","13","305","39","undefined","undefined","undefined","449703"
"321",322,322,23,"18","Female","Belgium","Somewhat happy","<img src='images/yellow25.png'></img>","Negative valence","120","gambleLoss","25","73","256","39","undefined","undefined","undefined","451036"
"322",323,323,23,"18","Female","Belgium","Somewhat happy","<img src='images/purple0.png'></img>","Positive valence","121","nonGamble","25","984","632","40","undefined","undefined","undefined","474854"
"323",324,324,23,"18","Female","Belgium","Somewhat happy","<img src='images/purple0.png'></img>","Positive valence","122","nonGamble","25","193","447","38","undefined","undefined","undefined","476513"
"324",325,325,23,"18","Female","Belgium","Somewhat happy","<img src='images/purple0.png'></img>","Positive valence","123","nonGamble","25","240","561","40","undefined","undefined","undefined","478321"
"325",326,326,23,"18","Female","Belgium","Somewhat happy","<img src='images/orange25.png'></img>","Positive valence","124","gambleWin","25","224","272","39","undefined","undefined","undefined","479832"
"326",327,327,23,"18","Female","Belgium","Somewhat happy","<img src='images/yellow25.png'></img>","Positive valence","125","gambleLoss","25","184","324","39","undefined","undefined","undefined","481345"
"327",328,328,23,"18","Female","Belgium","Somewhat happy","<img src='images/orange25.png'></img>","Positive valence","126","gambleLoss","25","107","617","37","undefined","undefined","undefined","483087"
"328",329,329,23,"18","Female","Belgium","Somewhat happy","<img src='images/blue25.png'></img>","Positive valence","127","gambleWin","25","20","249","39","undefined","undefined","undefined","484369"
"329",330,330,23,"18","Female","Belgium","Somewhat happy","<img src='images/purple0.png'></img>","Positive valence","128","nonGamble","25","220","526","40","undefined","undefined","undefined","486122"
"330",331,331,23,"18","Female","Belgium","Somewhat happy","<img src='images/purple0.png'></img>","Positive valence","129","nonGamble","25","193","863","40","undefined","undefined","undefined","488185"
"331",332,332,23,"18","Female","Belgium","Somewhat happy","<img src='images/orange25.png'></img>","Positive valence","130","gambleWin","25","79","347","39","undefined","undefined","undefined","489622"
"332",333,333,23,"18","Female","Belgium","Somewhat happy","<img src='images/yellow25.png'></img>","Positive valence","131","gambleWin","25","202","265","39","undefined","undefined","undefined","491108"
"333",334,334,23,"18","Female","Belgium","Somewhat happy","<img src='images/purple0.png'></img>","Positive valence","132","nonGamble","25","238","619","40","undefined","undefined","undefined","492971"
"334",335,335,23,"18","Female","Belgium","Somewhat happy","<img src='images/blue25.png'></img>","Positive valence","133","gambleLoss","25","191","325","39","undefined","undefined","undefined","494496"
"335",336,336,23,"18","Female","Belgium","Somewhat happy","<img src='images/blue25.png'></img>","Positive valence","134","gambleLoss","25","307","545","39","undefined","undefined","undefined","496354"
"336",337,337,23,"18","Female","Belgium","Somewhat happy","<img src='images/yellow25.png'></img>","Positive valence","135","gambleLoss","25","251","255","37","undefined","undefined","undefined","497863"
"337",338,338,23,"18","Female","Belgium","Somewhat happy","<img src='images/green25.png'></img>","Positive valence","136","gambleWin","25","6","324","39","undefined","undefined","undefined","499198"
"338",339,339,23,"18","Female","Belgium","Somewhat happy","<img src='images/yellow25.png'></img>","Positive valence","137","gambleLoss","25","69","253","39","undefined","undefined","undefined","500523"
"339",340,340,23,"18","Female","Belgium","Somewhat happy","<img src='images/orange25.png'></img>","Positive valence","138","gambleLoss","25","95","255","37","undefined","undefined","undefined","501877"
"340",341,341,23,"18","Female","Belgium","Somewhat happy","<img src='images/purple0.png'></img>","Positive valence","139","nonGamble","25","68","889","40","undefined","undefined","undefined","503851"
"341",342,342,23,"18","Female","Belgium","Somewhat happy","<img src='images/orange25.png'></img>","Positive valence","140","gambleLoss","25","200","320","39","undefined","undefined","undefined","505375"
"342",343,343,23,"18","Female","Belgium","Somewhat happy","<img src='images/orange25.png'></img>","Positive valence","141","gambleLoss","25","194","266","39","undefined","undefined","undefined","506839"
"343",344,344,23,"18","Female","Belgium","Somewhat happy","<img src='images/purple0.png'></img>","Positive valence","142","nonGamble","25","233","407","40","undefined","undefined","undefined","508483"
"344",345,345,23,"18","Female","Belgium","Somewhat happy","<img src='images/green25.png'></img>","Positive valence","143","gambleLoss","25","225","306","37","undefined","undefined","undefined","510017"
"345",346,346,23,"18","Female","Belgium","Somewhat happy","<img src='images/orange25.png'></img>","Positive valence","144","gambleWin","25","180","304","39","undefined","undefined","undefined","511505"
"346",347,347,23,"18","Female","Belgium","Somewhat happy","<img src='images/purple0.png'></img>","Positive valence","145","nonGamble","25","40","487","40","undefined","undefined","undefined","513037"
"347",348,348,23,"18","Female","Belgium","Somewhat happy","<img src='images/purple0.png'></img>","Positive valence","146","nonGamble","25","253","299","40","undefined","undefined","undefined","514592"
"348",349,349,23,"18","Female","Belgium","Somewhat happy","<img src='images/green25.png'></img>","Positive valence","147","gambleLoss","25","81","412","39","undefined","undefined","undefined","516089"
"349",350,350,23,"18","Female","Belgium","Somewhat happy","<img src='images/green25.png'></img>","Positive valence","148","gambleLoss","25","20","601","39","undefined","undefined","undefined","517715"
"350",351,351,23,"18","Female","Belgium","Somewhat happy","<img src='images/green25.png'></img>","Positive valence","149","gambleWin","25","305","255","39","undefined","undefined","undefined","519277"
"351",352,352,23,"18","Female","Belgium","Somewhat happy","<img src='images/orange25.png'></img>","Positive valence","150","gambleWin","25","551","335","39","undefined","undefined","undefined","521168"
"352",353,353,23,"18","Female","Belgium","Somewhat happy","<img src='images/yellow25.png'></img>","Positive valence","151","gambleWin","25","232","286","39","undefined","undefined","undefined","522691"
"353",354,354,23,"18","Female","Belgium","Somewhat happy","<img src='images/purple0.png'></img>","Positive valence","152","nonGamble","25","1","904","40","undefined","undefined","undefined","524599"
"354",355,355,23,"18","Female","Belgium","Somewhat happy","<img src='images/orange25.png'></img>","Positive valence","153","gambleWin","25","294","524","39","undefined","undefined","undefined","526421"
"355",356,356,23,"18","Female","Belgium","Somewhat happy","<img src='images/purple0.png'></img>","Positive valence","154","nonGamble","25","339","711","40","undefined","undefined","undefined","528475"
"356",357,357,23,"18","Female","Belgium","Somewhat happy","<img src='images/yellow25.png'></img>","Positive valence","155","gambleWin","25","278","658","39","undefined","undefined","undefined","530414"
"357",358,358,23,"18","Female","Belgium","Somewhat happy","<img src='images/purple0.png'></img>","Positive valence","156","nonGamble","25","308","725","40","undefined","undefined","undefined","532452"
"358",359,359,23,"18","Female","Belgium","Somewhat happy","<img src='images/purple0.png'></img>","Positive valence","157","nonGamble","25","47","657","40","undefined","undefined","undefined","534160"
"359",360,360,23,"18","Female","Belgium","Somewhat happy","<img src='images/blue25.png'></img>","Positive valence","158","gambleWin","25","100","247","39","undefined","undefined","undefined","535510"
"360",361,361,23,"18","Female","Belgium","Somewhat happy","<img src='images/purple0.png'></img>","Positive valence","159","nonGamble","25","262","665","40","undefined","undefined","undefined","537440"
"361",362,362,23,"18","Female","Belgium","Somewhat happy","<img src='images/green25.png'></img>","Positive valence","160","gambleWin","25","282","252","39","undefined","undefined","undefined","538990"
"362",363,363,23,"18","Female","Belgium","Somewhat happy","<img src='images/green25.png'></img>","Positive valence","161","gambleWin","25","235","276","39","undefined","undefined","undefined","540505"
"363",364,364,23,"18","Female","Belgium","Somewhat happy","<img src='images/purple0.png'></img>","Positive valence","162","nonGamble","25","50","550","40","undefined","undefined","undefined","542109"
"364",365,365,23,"18","Female","Belgium","Somewhat happy","<img src='images/yellow25.png'></img>","Positive valence","163","gambleWin","25","292","359","39","undefined","undefined","undefined","543764"
"365",366,366,23,"18","Female","Belgium","Somewhat happy","<img src='images/purple0.png'></img>","Positive valence","164","nonGamble","25","718","601","40","undefined","undefined","undefined","546086"
"366",367,367,23,"18","Female","Belgium","Somewhat happy","<img src='images/blue25.png'></img>","Positive valence","165","gambleLoss","25","284","315","39","undefined","undefined","undefined","547690"
"367",368,368,23,"18","Female","Belgium","Somewhat happy","<img src='images/green25.png'></img>","Positive valence","166","gambleLoss","25","310","276","39","undefined","undefined","undefined","549279"
"368",369,369,23,"18","Female","Belgium","Somewhat happy","<img src='images/blue25.png'></img>","Positive valence","167","gambleWin","25","155","311","39","undefined","undefined","undefined","550749"
"369",370,370,23,"18","Female","Belgium","Somewhat happy","<img src='images/blue25.png'></img>","Positive valence","168","gambleLoss","25","186","308","39","undefined","undefined","undefined","552247"
"370",371,371,23,"18","Female","Belgium","Somewhat happy","<img src='images/green25.png'></img>","Positive valence","169","gambleLoss","25","345","375","39","undefined","undefined","undefined","553972"
"371",372,372,23,"18","Female","Belgium","Somewhat happy","<img src='images/blue25.png'></img>","Positive valence","170","gambleWin","25","301","300","37","undefined","undefined","undefined","555577"
"372",373,373,23,"18","Female","Belgium","Somewhat happy","<img src='images/blue25.png'></img>","Positive valence","171","gambleLoss","25","294","314","37","undefined","undefined","undefined","557191"
"373",374,374,23,"18","Female","Belgium","Somewhat happy","<img src='images/purple0.png'></img>","Positive valence","172","nonGamble","25","251","614","40","undefined","undefined","undefined","559059"
"374",375,375,23,"18","Female","Belgium","Somewhat happy","<img src='images/purple0.png'></img>","Positive valence","173","nonGamble","25","271","588","40","undefined","undefined","undefined","560922"
"375",376,376,23,"18","Female","Belgium","Somewhat happy","<img src='images/purple0.png'></img>","Positive valence","174","nonGamble","25","2110","628","40","undefined","undefined","undefined","564665"
"376",377,377,23,"18","Female","Belgium","Somewhat happy","<img src='images/yellow25.png'></img>","Positive valence","175","gambleLoss","25","235","966","37","undefined","undefined","undefined","566869"
"377",378,378,23,"18","Female","Belgium","Somewhat happy","<img src='images/yellow25.png'></img>","Positive valence","176","gambleWin","25","275","234","39","undefined","undefined","undefined","568381"
"378",379,379,23,"18","Female","Belgium","Somewhat happy","<img src='images/green25.png'></img>","Positive valence","177","gambleWin","25","87","241","39","undefined","undefined","undefined","569712"
"379",380,380,23,"18","Female","Belgium","Somewhat happy","<img src='images/orange25.png'></img>","Positive valence","178","gambleLoss","25","139","386","39","undefined","undefined","undefined","571241"
"380",381,381,23,"18","Female","Belgium","Somewhat happy","<img src='images/blue25.png'></img>","Positive valence","179","gambleWin","25","128","319","39","undefined","undefined","undefined","572693"
"381",382,382,23,"18","Female","Belgium","Somewhat happy","<img src='images/yellow25.png'></img>","Positive valence","180","gambleLoss","25","51","230","39","undefined","undefined","undefined","573986"
"382",383,383,23,"18","Female","Belgium","Somewhat happy","undefined","undefined","undefined","undefined","undefined","undefined","2056","undefined","2","Perseverance","undefined","578062"
"383",384,384,23,"18","Female","Belgium","Somewhat happy","undefined","undefined","undefined","undefined","undefined","undefined","2448","undefined","2","Premeditation","undefined","580513"
"384",385,385,23,"18","Female","Belgium","Somewhat happy","undefined","undefined","undefined","undefined","undefined","undefined","1533","undefined","3","Positive Urgency","undefined","582048"
"385",386,386,23,"18","Female","Belgium","Somewhat happy","undefined","undefined","undefined","undefined","undefined","undefined","4362","undefined","1","Perseverance","undefined","586412"
"386",387,387,23,"18","Female","Belgium","Somewhat happy","undefined","undefined","undefined","undefined","undefined","undefined","6098","undefined","4","Premeditation","undefined","592512"
"387",388,388,23,"18","Female","Belgium","Somewhat happy","undefined","undefined","undefined","undefined","undefined","undefined","1776","undefined","3","Negative Urgency","undefined","594290"
"388",389,389,23,"18","Female","Belgium","Somewhat happy","undefined","undefined","undefined","undefined","undefined","undefined","3226","undefined","2","Perseverance","undefined","597519"
"389",390,390,23,"18","Female","Belgium","Somewhat happy","undefined","undefined","undefined","undefined","undefined","undefined","2105","undefined","3","Negative Urgency","undefined","599625"
"390",391,391,23,"18","Female","Belgium","Somewhat happy","undefined","undefined","undefined","undefined","undefined","undefined","3998","undefined","2","Sensation Seeking","undefined","603625"
"391",392,392,23,"18","Female","Belgium","Somewhat happy","undefined","undefined","undefined","undefined","undefined","undefined","1985","undefined","3","Positive Urgency","undefined","605612"
"392",393,393,23,"18","Female","Belgium","Somewhat happy","undefined","undefined","undefined","undefined","undefined","undefined","1805","undefined","2","Perseverance","undefined","607419"
"393",394,394,23,"18","Female","Belgium","Somewhat happy","undefined","undefined","undefined","undefined","undefined","undefined","3269","undefined","2","Premeditation","undefined","610690"
"394",395,395,23,"18","Female","Belgium","Somewhat happy","undefined","undefined","undefined","undefined","undefined","undefined","1733","undefined","3","Negative Urgency","undefined","612426"
"395",396,396,23,"18","Female","Belgium","Somewhat happy","undefined","undefined","undefined","undefined","undefined","undefined","1511","undefined","3","Sensation Seeking","undefined","613940"
"396",397,397,23,"18","Female","Belgium","Somewhat happy","undefined","undefined","undefined","undefined","undefined","undefined","5069","undefined","3","Negative Urgency","undefined","619011"
"397",398,398,23,"18","Female","Belgium","Somewhat happy","undefined","undefined","undefined","undefined","undefined","undefined","6392","undefined","2","Sensation Seeking","undefined","625405"
"398",399,399,23,"18","Female","Belgium","Somewhat happy","undefined","undefined","undefined","undefined","undefined","undefined","2733","undefined","3","Positive Urgency","undefined","628140"
"399",400,400,23,"18","Female","Belgium","Somewhat happy","undefined","undefined","undefined","undefined","undefined","undefined","3328","undefined","3","Sensation Seeking","undefined","631469"
"400",401,401,23,"18","Female","Belgium","Somewhat happy","undefined","undefined","undefined","undefined","undefined","undefined","3940","undefined","2","Premeditation","undefined","635412"
"401",402,402,23,"18","Female","Belgium","Somewhat happy","undefined","undefined","undefined","undefined","undefined","undefined","4055","undefined","4","Positive Urgency","undefined","639470"
