"","X.1","X","prolific_ID","Age","Gender","Nationality","Feelings","stimulus","block_number","trial_number","outcome","amount","startRT","RT","key_press","resp","factor","color","time_elapsed"
"1",2,2,10,"18 (one day till 19)","Female","Belgian","Somewhat unhappy","<img src='images/yellow25.png'></img>","No music","1","gambleLoss","25","1956",937,"39","undefined","undefined","undefined",339341
"2",3,3,10,"18 (one day till 19)","Female","Belgian","Somewhat unhappy","<img src='images/green25.png'></img>","No music","2","gambleLoss","25","911",405,"39","undefined","undefined","undefined",341678
"3",4,4,10,"18 (one day till 19)","Female","Belgian","Somewhat unhappy","<img src='images/orange25.png'></img>","No music","3","gambleLoss","25","146",487,"39","undefined","undefined","undefined",343335
"4",5,5,10,"18 (one day till 19)","Female","Belgian","Somewhat unhappy","<img src='images/purple0.png'></img>","No music","4","nonGamble","25","1099",1649,"38","undefined","undefined","undefined",347103
"5",6,6,10,"18 (one day till 19)","Female","Belgian","Somewhat unhappy","<img src='images/orange25.png'></img>","No music","5","gambleLoss","25","1511",733,"37","undefined","undefined","undefined",350371
"6",7,7,10,"18 (one day till 19)","Female","Belgian","Somewhat unhappy","<img src='images/yellow25.png'></img>","No music","6","gambleLoss","25","479",427,"39","undefined","undefined","undefined",352292
"7",8,8,10,"18 (one day till 19)","Female","Belgian","Somewhat unhappy","<img src='images/green25.png'></img>","No music","7","gambleLoss","25","447",442,"37","undefined","undefined","undefined",354193
"8",9,9,10,"18 (one day till 19)","Female","Belgian","Somewhat unhappy","<img src='images/green25.png'></img>","No music","8","gambleLoss","25","306",334,"39","undefined","undefined","undefined",355847
"9",10,10,10,"18 (one day till 19)","Female","Belgian","Somewhat unhappy","<img src='images/purple0.png'></img>","No music","9","nonGamble","25","299",6444,"40","undefined","undefined","undefined",363601
"10",11,11,10,"18 (one day till 19)","Female","Belgian","Somewhat unhappy","<img src='images/purple0.png'></img>","No music","10","nonGamble","25","296",3097,"40","undefined","undefined","undefined",368014
"11",12,12,10,"18 (one day till 19)","Female","Belgian","Somewhat unhappy","<img src='images/purple0.png'></img>","No music","11","nonGamble","25","1068",3563,"40","undefined","undefined","undefined",373656
"12",13,13,10,"18 (one day till 19)","Female","Belgian","Somewhat unhappy","<img src='images/purple0.png'></img>","No music","12","nonGamble","25","712",921,"38","undefined","undefined","undefined",376296
"13",14,14,10,"18 (one day till 19)","Female","Belgian","Somewhat unhappy","<img src='images/green25.png'></img>","No music","13","gambleLoss","25","645",848,"37","undefined","undefined","undefined",378811
"14",15,15,10,"18 (one day till 19)","Female","Belgian","Somewhat unhappy","<img src='images/purple0.png'></img>","No music","14","nonGamble","25","407",1252,"38","undefined","undefined","undefined",381476
"15",16,16,10,"18 (one day till 19)","Female","Belgian","Somewhat unhappy","<img src='images/yellow25.png'></img>","No music","15","gambleWin","25","1798",1402,"39","undefined","undefined","undefined",385682
"16",17,17,10,"18 (one day till 19)","Female","Belgian","Somewhat unhappy","<img src='images/purple0.png'></img>","No music","16","nonGamble","25","434",1191,"38","undefined","undefined","undefined",388326
"17",18,18,10,"18 (one day till 19)","Female","Belgian","Somewhat unhappy","<img src='images/yellow25.png'></img>","No music","17","gambleWin","25","289",2252,"37","undefined","undefined","undefined",391909
"18",19,19,10,"18 (one day till 19)","Female","Belgian","Somewhat unhappy","<img src='images/purple0.png'></img>","No music","18","nonGamble","25","468",1057,"38","undefined","undefined","undefined",394442
"19",20,20,10,"18 (one day till 19)","Female","Belgian","Somewhat unhappy","<img src='images/yellow25.png'></img>","No music","19","gambleWin","25","373",747,"39","undefined","undefined","undefined",396575
"20",21,21,10,"18 (one day till 19)","Female","Belgian","Somewhat unhappy","<img src='images/purple0.png'></img>","No music","20","nonGamble","25","630",633,"38","undefined","undefined","undefined",398857
"21",22,22,10,"18 (one day till 19)","Female","Belgian","Somewhat unhappy","<img src='images/blue25.png'></img>","No music","21","gambleLoss","25","329",706,"37","undefined","undefined","undefined",400905
"22",23,23,10,"18 (one day till 19)","Female","Belgian","Somewhat unhappy","<img src='images/green25.png'></img>","No music","22","gambleWin","25","396",1233,"39","undefined","undefined","undefined",403550
"23",24,24,10,"18 (one day till 19)","Female","Belgian","Somewhat unhappy","<img src='images/green25.png'></img>","No music","23","gambleWin","25","582",676,"39","undefined","undefined","undefined",405822
"24",25,25,10,"18 (one day till 19)","Female","Belgian","Somewhat unhappy","<img src='images/blue25.png'></img>","No music","24","gambleWin","25","549",548,"39","undefined","undefined","undefined",407939
"25",26,26,10,"18 (one day till 19)","Female","Belgian","Somewhat unhappy","<img src='images/blue25.png'></img>","No music","25","gambleLoss","25","489",454,"39","undefined","undefined","undefined",409901
"26",27,27,10,"18 (one day till 19)","Female","Belgian","Somewhat unhappy","<img src='images/purple0.png'></img>","No music","26","nonGamble","25","273",1111,"38","undefined","undefined","undefined",412308
"27",28,28,10,"18 (one day till 19)","Female","Belgian","Somewhat unhappy","<img src='images/orange25.png'></img>","No music","27","gambleLoss","25","110",469,"39","undefined","undefined","undefined",413904
"28",29,29,10,"18 (one day till 19)","Female","Belgian","Somewhat unhappy","<img src='images/green25.png'></img>","No music","28","gambleWin","25","353",1172,"37","undefined","undefined","undefined",416436
"29",30,30,10,"18 (one day till 19)","Female","Belgian","Somewhat unhappy","<img src='images/purple0.png'></img>","No music","29","nonGamble","25","563",946,"38","undefined","undefined","undefined",418959
"30",31,31,10,"18 (one day till 19)","Female","Belgian","Somewhat unhappy","<img src='images/orange25.png'></img>","No music","30","gambleWin","25","1118",526,"37","undefined","undefined","undefined",421624
"31",32,32,10,"18 (one day till 19)","Female","Belgian","Somewhat unhappy","<img src='images/green25.png'></img>","No music","31","gambleLoss","25","959",787,"37","undefined","undefined","undefined",424389
"32",33,33,10,"18 (one day till 19)","Female","Belgian","Somewhat unhappy","<img src='images/purple0.png'></img>","No music","32","nonGamble","25","149",866,"38","undefined","undefined","undefined",426417
"33",34,34,10,"18 (one day till 19)","Female","Belgian","Somewhat unhappy","<img src='images/yellow25.png'></img>","No music","33","gambleWin","25","632",516,"39","undefined","undefined","undefined",428580
"34",35,35,10,"18 (one day till 19)","Female","Belgian","Somewhat unhappy","<img src='images/purple0.png'></img>","No music","34","nonGamble","25","179",624,"38","undefined","undefined","undefined",430403
"35",36,36,10,"18 (one day till 19)","Female","Belgian","Somewhat unhappy","<img src='images/yellow25.png'></img>","No music","35","gambleLoss","25","306",522,"39","undefined","undefined","undefined",432246
"36",37,37,10,"18 (one day till 19)","Female","Belgian","Somewhat unhappy","<img src='images/blue25.png'></img>","No music","36","gambleLoss","25","379",1017,"37","undefined","undefined","undefined",434663
"37",38,38,10,"18 (one day till 19)","Female","Belgian","Somewhat unhappy","<img src='images/blue25.png'></img>","No music","37","gambleWin","25","109",478,"39","undefined","undefined","undefined",436268
"38",39,39,10,"18 (one day till 19)","Female","Belgian","Somewhat unhappy","<img src='images/purple0.png'></img>","No music","38","nonGamble","25","452",720,"38","undefined","undefined","undefined",438460
"39",40,40,10,"18 (one day till 19)","Female","Belgian","Somewhat unhappy","<img src='images/orange25.png'></img>","No music","39","gambleWin","25","610",543,"39","undefined","undefined","undefined",440632
"40",41,41,10,"18 (one day till 19)","Female","Belgian","Somewhat unhappy","<img src='images/yellow25.png'></img>","No music","40","gambleLoss","25","408",624,"39","undefined","undefined","undefined",442674
"41",42,42,10,"18 (one day till 19)","Female","Belgian","Somewhat unhappy","<img src='images/blue25.png'></img>","No music","41","gambleLoss","25","406",552,"37","undefined","undefined","undefined",444645
"42",43,43,10,"18 (one day till 19)","Female","Belgian","Somewhat unhappy","<img src='images/blue25.png'></img>","No music","42","gambleLoss","25","271",399,"39","undefined","undefined","undefined",446327
"43",44,44,10,"18 (one day till 19)","Female","Belgian","Somewhat unhappy","<img src='images/orange25.png'></img>","No music","43","gambleWin","25","1540",577,"37","undefined","undefined","undefined",449455
"44",45,45,10,"18 (one day till 19)","Female","Belgian","Somewhat unhappy","<img src='images/green25.png'></img>","No music","44","gambleWin","25","91",468,"37","undefined","undefined","undefined",451025
"45",46,46,10,"18 (one day till 19)","Female","Belgian","Somewhat unhappy","<img src='images/orange25.png'></img>","No music","45","gambleWin","25","503",479,"37","undefined","undefined","undefined",453014
"46",47,47,10,"18 (one day till 19)","Female","Belgian","Somewhat unhappy","<img src='images/purple0.png'></img>","No music","46","nonGamble","25","1120",1261,"38","undefined","undefined","undefined",456409
"47",48,48,10,"18 (one day till 19)","Female","Belgian","Somewhat unhappy","<img src='images/yellow25.png'></img>","No music","47","gambleWin","25","419",461,"39","undefined","undefined","undefined",458305
"48",49,49,10,"18 (one day till 19)","Female","Belgian","Somewhat unhappy","<img src='images/purple0.png'></img>","No music","48","nonGamble","25","96",816,"38","undefined","undefined","undefined",460238
"49",50,50,10,"18 (one day till 19)","Female","Belgian","Somewhat unhappy","<img src='images/blue25.png'></img>","No music","49","gambleWin","25","225",443,"39","undefined","undefined","undefined",461925
"50",51,51,10,"18 (one day till 19)","Female","Belgian","Somewhat unhappy","<img src='images/blue25.png'></img>","No music","50","gambleWin","25","253",815,"39","undefined","undefined","undefined",464005
"51",52,52,10,"18 (one day till 19)","Female","Belgian","Somewhat unhappy","<img src='images/orange25.png'></img>","No music","51","gambleLoss","25","6",451,"39","undefined","undefined","undefined",465476
"52",53,53,10,"18 (one day till 19)","Female","Belgian","Somewhat unhappy","<img src='images/green25.png'></img>","No music","52","gambleWin","25","375",478,"37","undefined","undefined","undefined",467341
"53",54,54,10,"18 (one day till 19)","Female","Belgian","Somewhat unhappy","<img src='images/yellow25.png'></img>","No music","53","gambleLoss","25","435",588,"37","undefined","undefined","undefined",469372
"54",55,55,10,"18 (one day till 19)","Female","Belgian","Somewhat unhappy","<img src='images/orange25.png'></img>","No music","54","gambleLoss","25","536",363,"39","undefined","undefined","undefined",471276
"55",56,56,10,"18 (one day till 19)","Female","Belgian","Somewhat unhappy","<img src='images/purple0.png'></img>","No music","55","nonGamble","25","136",791,"38","undefined","undefined","undefined",473214
"56",57,57,10,"18 (one day till 19)","Female","Belgian","Somewhat unhappy","<img src='images/purple0.png'></img>","No music","56","nonGamble","25","282",1282,"38","undefined","undefined","undefined",475794
"57",58,58,10,"18 (one day till 19)","Female","Belgian","Somewhat unhappy","<img src='images/orange25.png'></img>","No music","57","gambleWin","25","105",669,"37","undefined","undefined","undefined",477581
"58",59,59,10,"18 (one day till 19)","Female","Belgian","Somewhat unhappy","<img src='images/blue25.png'></img>","No music","58","gambleWin","25","143",669,"37","undefined","undefined","undefined",479413
"59",60,60,10,"18 (one day till 19)","Female","Belgian","Somewhat unhappy","<img src='images/purple0.png'></img>","No music","59","nonGamble","25","949",711,"38","undefined","undefined","undefined",482087
"60",61,61,10,"18 (one day till 19)","Female","Belgian","Somewhat unhappy","<img src='images/purple0.png'></img>","No music","60","nonGamble","25","209",737,"38","undefined","undefined","undefined",484044
"61",62,62,10,"18 (one day till 19)","Female","Belgian","Somewhat unhappy","<img src='images/yellow25.png'></img>","Negative valence","61","gambleLoss","25","935",667,"37","undefined","undefined","undefined",507687
"62",63,63,10,"18 (one day till 19)","Female","Belgian","Somewhat unhappy","<img src='images/green25.png'></img>","Negative valence","62","gambleLoss","25","348",426,"39","undefined","undefined","undefined",509474
"63",64,64,10,"18 (one day till 19)","Female","Belgian","Somewhat unhappy","<img src='images/orange25.png'></img>","Negative valence","63","gambleLoss","25","20",594,"37","undefined","undefined","undefined",511105
"64",65,65,10,"18 (one day till 19)","Female","Belgian","Somewhat unhappy","<img src='images/purple0.png'></img>","Negative valence","64","nonGamble","25","289",728,"38","undefined","undefined","undefined",513141
"65",66,66,10,"18 (one day till 19)","Female","Belgian","Somewhat unhappy","<img src='images/orange25.png'></img>","Negative valence","65","gambleLoss","25","51",425,"39","undefined","undefined","undefined",514623
"66",67,67,10,"18 (one day till 19)","Female","Belgian","Somewhat unhappy","<img src='images/yellow25.png'></img>","Negative valence","66","gambleLoss","25","97",631,"37","undefined","undefined","undefined",516373
"67",68,68,10,"18 (one day till 19)","Female","Belgian","Somewhat unhappy","<img src='images/green25.png'></img>","Negative valence","67","gambleLoss","25","534",504,"37","undefined","undefined","undefined",518428
"68",69,69,10,"18 (one day till 19)","Female","Belgian","Somewhat unhappy","<img src='images/green25.png'></img>","Negative valence","68","gambleLoss","25","834",505,"37","undefined","undefined","undefined",520781
"69",70,70,10,"18 (one day till 19)","Female","Belgian","Somewhat unhappy","<img src='images/purple0.png'></img>","Negative valence","69","nonGamble","25","75",729,"38","undefined","undefined","undefined",522603
"70",71,71,10,"18 (one day till 19)","Female","Belgian","Somewhat unhappy","<img src='images/purple0.png'></img>","Negative valence","70","nonGamble","25","221",727,"38","undefined","undefined","undefined",524572
"71",72,72,10,"18 (one day till 19)","Female","Belgian","Somewhat unhappy","<img src='images/purple0.png'></img>","Negative valence","71","nonGamble","25","541",454,"38","undefined","undefined","undefined",526586
"72",73,73,10,"18 (one day till 19)","Female","Belgian","Somewhat unhappy","<img src='images/purple0.png'></img>","Negative valence","72","nonGamble","25","93",605,"38","undefined","undefined","undefined",528307
"73",74,74,10,"18 (one day till 19)","Female","Belgian","Somewhat unhappy","<img src='images/green25.png'></img>","Negative valence","73","gambleLoss","25","175",656,"39","undefined","undefined","undefined",530158
"74",75,75,10,"18 (one day till 19)","Female","Belgian","Somewhat unhappy","<img src='images/purple0.png'></img>","Negative valence","74","nonGamble","25","57",471,"38","undefined","undefined","undefined",531704
"75",76,76,10,"18 (one day till 19)","Female","Belgian","Somewhat unhappy","<img src='images/yellow25.png'></img>","Negative valence","75","gambleWin","25","261",371,"37","undefined","undefined","undefined",533353
"76",77,77,10,"18 (one day till 19)","Female","Belgian","Somewhat unhappy","<img src='images/purple0.png'></img>","Negative valence","76","nonGamble","25","372",489,"38","undefined","undefined","undefined",535236
"77",78,78,10,"18 (one day till 19)","Female","Belgian","Somewhat unhappy","<img src='images/yellow25.png'></img>","Negative valence","77","gambleWin","25","315",478,"37","undefined","undefined","undefined",537043
"78",79,79,10,"18 (one day till 19)","Female","Belgian","Somewhat unhappy","<img src='images/purple0.png'></img>","Negative valence","78","nonGamble","25","2503",542,"38","undefined","undefined","undefined",541100
"79",80,80,10,"18 (one day till 19)","Female","Belgian","Somewhat unhappy","<img src='images/yellow25.png'></img>","Negative valence","79","gambleWin","25","218",523,"37","undefined","undefined","undefined",542859
"80",81,81,10,"18 (one day till 19)","Female","Belgian","Somewhat unhappy","<img src='images/purple0.png'></img>","Negative valence","80","nonGamble","25","275",426,"38","undefined","undefined","undefined",544580
"81",82,82,10,"18 (one day till 19)","Female","Belgian","Somewhat unhappy","<img src='images/blue25.png'></img>","Negative valence","81","gambleLoss","25","4039",568,"37","undefined","undefined","undefined",550206
"82",83,83,10,"18 (one day till 19)","Female","Belgian","Somewhat unhappy","<img src='images/green25.png'></img>","Negative valence","82","gambleWin","25","350",550,"39","undefined","undefined","undefined",552114
"83",84,84,10,"18 (one day till 19)","Female","Belgian","Somewhat unhappy","<img src='images/green25.png'></img>","Negative valence","83","gambleWin","25","214",451,"39","undefined","undefined","undefined",553789
"84",85,85,10,"18 (one day till 19)","Female","Belgian","Somewhat unhappy","<img src='images/blue25.png'></img>","Negative valence","84","gambleWin","25","329",461,"39","undefined","undefined","undefined",555585
"85",86,86,10,"18 (one day till 19)","Female","Belgian","Somewhat unhappy","<img src='images/blue25.png'></img>","Negative valence","85","gambleLoss","25","11",468,"39","undefined","undefined","undefined",557072
"86",87,87,10,"18 (one day till 19)","Female","Belgian","Somewhat unhappy","<img src='images/purple0.png'></img>","Negative valence","86","nonGamble","25","45",676,"38","undefined","undefined","undefined",558812
"87",88,88,10,"18 (one day till 19)","Female","Belgian","Somewhat unhappy","<img src='images/orange25.png'></img>","Negative valence","87","gambleLoss","25","437",533,"37","undefined","undefined","undefined",560792
"88",89,89,10,"18 (one day till 19)","Female","Belgian","Somewhat unhappy","<img src='images/green25.png'></img>","Negative valence","88","gambleWin","25","386",537,"39","undefined","undefined","undefined",562724
"89",90,90,10,"18 (one day till 19)","Female","Belgian","Somewhat unhappy","<img src='images/purple0.png'></img>","Negative valence","89","nonGamble","25","350",417,"38","undefined","undefined","undefined",564502
"90",91,91,10,"18 (one day till 19)","Female","Belgian","Somewhat unhappy","<img src='images/orange25.png'></img>","Negative valence","90","gambleWin","25","552",360,"39","undefined","undefined","undefined",566433
"91",92,92,10,"18 (one day till 19)","Female","Belgian","Somewhat unhappy","<img src='images/green25.png'></img>","Negative valence","91","gambleLoss","25","162",670,"39","undefined","undefined","undefined",568285
"92",93,93,10,"18 (one day till 19)","Female","Belgian","Somewhat unhappy","<img src='images/purple0.png'></img>","Negative valence","92","nonGamble","25","185",514,"38","undefined","undefined","undefined",570005
"93",94,94,10,"18 (one day till 19)","Female","Belgian","Somewhat unhappy","<img src='images/yellow25.png'></img>","Negative valence","93","gambleWin","25","30",574,"39","undefined","undefined","undefined",571628
"94",95,95,10,"18 (one day till 19)","Female","Belgian","Somewhat unhappy","<img src='images/purple0.png'></img>","Negative valence","94","nonGamble","25","386",306,"38","undefined","undefined","undefined",573333
"95",96,96,10,"18 (one day till 19)","Female","Belgian","Somewhat unhappy","<img src='images/yellow25.png'></img>","Negative valence","95","gambleLoss","25","150",418,"39","undefined","undefined","undefined",574921
"96",97,97,10,"18 (one day till 19)","Female","Belgian","Somewhat unhappy","<img src='images/blue25.png'></img>","Negative valence","96","gambleLoss","25","55",632,"37","undefined","undefined","undefined",576628
"97",98,98,10,"18 (one day till 19)","Female","Belgian","Somewhat unhappy","<img src='images/blue25.png'></img>","Negative valence","97","gambleWin","25","246",775,"37","undefined","undefined","undefined",578666
"98",99,99,10,"18 (one day till 19)","Female","Belgian","Somewhat unhappy","<img src='images/purple0.png'></img>","Negative valence","98","nonGamble","25","274",362,"38","undefined","undefined","undefined",580324
"99",100,100,10,"18 (one day till 19)","Female","Belgian","Somewhat unhappy","<img src='images/orange25.png'></img>","Negative valence","99","gambleWin","25","24",622,"37","undefined","undefined","undefined",581986
"100",101,101,10,"18 (one day till 19)","Female","Belgian","Somewhat unhappy","<img src='images/yellow25.png'></img>","Negative valence","100","gambleLoss","25","391",523,"37","undefined","undefined","undefined",583916
"101",102,102,10,"18 (one day till 19)","Female","Belgian","Somewhat unhappy","<img src='images/blue25.png'></img>","Negative valence","101","gambleLoss","25","323",334,"37","undefined","undefined","undefined",585595
"102",103,103,10,"18 (one day till 19)","Female","Belgian","Somewhat unhappy","<img src='images/blue25.png'></img>","Negative valence","102","gambleLoss","25","257",617,"39","undefined","undefined","undefined",587490
"103",104,104,10,"18 (one day till 19)","Female","Belgian","Somewhat unhappy","<img src='images/orange25.png'></img>","Negative valence","103","gambleWin","25","605",399,"37","undefined","undefined","undefined",589507
"104",105,105,10,"18 (one day till 19)","Female","Belgian","Somewhat unhappy","<img src='images/green25.png'></img>","Negative valence","104","gambleWin","25","38",423,"37","undefined","undefined","undefined",590978
"105",106,106,10,"18 (one day till 19)","Female","Belgian","Somewhat unhappy","<img src='images/orange25.png'></img>","Negative valence","105","gambleWin","25","252",342,"37","undefined","undefined","undefined",592594
"106",107,107,10,"18 (one day till 19)","Female","Belgian","Somewhat unhappy","<img src='images/purple0.png'></img>","Negative valence","106","nonGamble","25","208",390,"38","undefined","undefined","undefined",594203
"107",108,108,10,"18 (one day till 19)","Female","Belgian","Somewhat unhappy","<img src='images/yellow25.png'></img>","Negative valence","107","gambleWin","25","599",443,"37","undefined","undefined","undefined",596266
"108",109,109,10,"18 (one day till 19)","Female","Belgian","Somewhat unhappy","<img src='images/purple0.png'></img>","Negative valence","108","nonGamble","25","234",379,"38","undefined","undefined","undefined",597901
"109",110,110,10,"18 (one day till 19)","Female","Belgian","Somewhat unhappy","<img src='images/blue25.png'></img>","Negative valence","109","gambleWin","25","536",704,"37","undefined","undefined","undefined",600162
"110",111,111,10,"18 (one day till 19)","Female","Belgian","Somewhat unhappy","<img src='images/blue25.png'></img>","Negative valence","110","gambleWin","25","799",531,"37","undefined","undefined","undefined",602513
"111",112,112,10,"18 (one day till 19)","Female","Belgian","Somewhat unhappy","<img src='images/orange25.png'></img>","Negative valence","111","gambleLoss","25","283",603,"37","undefined","undefined","undefined",604408
"112",113,113,10,"18 (one day till 19)","Female","Belgian","Somewhat unhappy","<img src='images/green25.png'></img>","Negative valence","112","gambleWin","25","248",476,"39","undefined","undefined","undefined",606151
"113",114,114,10,"18 (one day till 19)","Female","Belgian","Somewhat unhappy","<img src='images/yellow25.png'></img>","Negative valence","113","gambleLoss","25","295",572,"39","undefined","undefined","undefined",608035
"114",115,115,10,"18 (one day till 19)","Female","Belgian","Somewhat unhappy","<img src='images/orange25.png'></img>","Negative valence","114","gambleLoss","25","467",362,"37","undefined","undefined","undefined",609884
"115",116,116,10,"18 (one day till 19)","Female","Belgian","Somewhat unhappy","<img src='images/purple0.png'></img>","Negative valence","115","nonGamble","25","166",770,"38","undefined","undefined","undefined",611840
"116",117,117,10,"18 (one day till 19)","Female","Belgian","Somewhat unhappy","<img src='images/purple0.png'></img>","Negative valence","116","nonGamble","25","294",703,"38","undefined","undefined","undefined",613856
"117",118,118,10,"18 (one day till 19)","Female","Belgian","Somewhat unhappy","<img src='images/orange25.png'></img>","Negative valence","117","gambleWin","25","276",704,"37","undefined","undefined","undefined",615848
"118",119,119,10,"18 (one day till 19)","Female","Belgian","Somewhat unhappy","<img src='images/blue25.png'></img>","Negative valence","118","gambleWin","25","631",631,"37","undefined","undefined","undefined",618126
"119",120,120,10,"18 (one day till 19)","Female","Belgian","Somewhat unhappy","<img src='images/purple0.png'></img>","Negative valence","119","nonGamble","25","376",549,"38","undefined","undefined","undefined",620061
"120",121,121,10,"18 (one day till 19)","Female","Belgian","Somewhat unhappy","<img src='images/purple0.png'></img>","Negative valence","120","nonGamble","25","263",577,"38","undefined","undefined","undefined",621912
"121",122,122,10,"18 (one day till 19)","Female","Belgian","Somewhat happy","<img src='images/yellow25.png'></img>","Positive valence","121","gambleLoss","25","885",695,"37","undefined","undefined","undefined",645742
"122",123,123,10,"18 (one day till 19)","Female","Belgian","Somewhat happy","<img src='images/green25.png'></img>","Positive valence","122","gambleLoss","25","29",603,"37","undefined","undefined","undefined",647390
"123",124,124,10,"18 (one day till 19)","Female","Belgian","Somewhat happy","<img src='images/orange25.png'></img>","Positive valence","123","gambleLoss","25","114",639,"39","undefined","undefined","undefined",649163
"124",125,125,10,"18 (one day till 19)","Female","Belgian","Somewhat happy","<img src='images/purple0.png'></img>","Positive valence","124","nonGamble","25","83",709,"38","undefined","undefined","undefined",650971
"125",126,126,10,"18 (one day till 19)","Female","Belgian","Somewhat happy","<img src='images/orange25.png'></img>","Positive valence","125","gambleLoss","25","241",399,"37","undefined","undefined","undefined",652626
"126",127,127,10,"18 (one day till 19)","Female","Belgian","Somewhat happy","<img src='images/yellow25.png'></img>","Positive valence","126","gambleLoss","25","277",602,"39","undefined","undefined","undefined",654514
"127",128,128,10,"18 (one day till 19)","Female","Belgian","Somewhat happy","<img src='images/green25.png'></img>","Positive valence","127","gambleLoss","25","297",379,"37","undefined","undefined","undefined",656202
"128",129,129,10,"18 (one day till 19)","Female","Belgian","Somewhat happy","<img src='images/green25.png'></img>","Positive valence","128","gambleLoss","25","87",406,"37","undefined","undefined","undefined",657714
"129",130,130,10,"18 (one day till 19)","Female","Belgian","Somewhat happy","<img src='images/purple0.png'></img>","Positive valence","129","nonGamble","25","12",390,"38","undefined","undefined","undefined",659139
"130",131,131,10,"18 (one day till 19)","Female","Belgian","Somewhat happy","<img src='images/purple0.png'></img>","Positive valence","130","nonGamble","25","188",396,"38","undefined","undefined","undefined",660734
"131",132,132,10,"18 (one day till 19)","Female","Belgian","Somewhat happy","<img src='images/purple0.png'></img>","Positive valence","131","nonGamble","25","350",450,"38","undefined","undefined","undefined",662555
"132",133,133,10,"18 (one day till 19)","Female","Belgian","Somewhat happy","<img src='images/purple0.png'></img>","Positive valence","132","nonGamble","25","653",496,"38","undefined","undefined","undefined",664710
"133",134,134,10,"18 (one day till 19)","Female","Belgian","Somewhat happy","<img src='images/green25.png'></img>","Positive valence","133","gambleLoss","25","105",734,"39","undefined","undefined","undefined",666563
"134",135,135,10,"18 (one day till 19)","Female","Belgian","Somewhat happy","<img src='images/purple0.png'></img>","Positive valence","134","nonGamble","25","121",398,"38","undefined","undefined","undefined",668104
"135",136,136,10,"18 (one day till 19)","Female","Belgian","Somewhat happy","<img src='images/yellow25.png'></img>","Positive valence","135","gambleWin","25","189",423,"37","undefined","undefined","undefined",669725
"136",137,137,10,"18 (one day till 19)","Female","Belgian","Somewhat happy","<img src='images/purple0.png'></img>","Positive valence","136","nonGamble","25","308",298,"38","undefined","undefined","undefined",671351
"137",138,138,10,"18 (one day till 19)","Female","Belgian","Somewhat happy","<img src='images/yellow25.png'></img>","Positive valence","137","gambleWin","25","263",586,"37","undefined","undefined","undefined",673211
"138",139,139,10,"18 (one day till 19)","Female","Belgian","Somewhat happy","<img src='images/purple0.png'></img>","Positive valence","138","nonGamble","25","289",477,"38","undefined","undefined","undefined",674997
"139",140,140,10,"18 (one day till 19)","Female","Belgian","Somewhat happy","<img src='images/yellow25.png'></img>","Positive valence","139","gambleWin","25","496",737,"37","undefined","undefined","undefined",677241
"140",141,141,10,"18 (one day till 19)","Female","Belgian","Somewhat happy","<img src='images/purple0.png'></img>","Positive valence","140","nonGamble","25","243",433,"38","undefined","undefined","undefined",678924
"141",142,142,10,"18 (one day till 19)","Female","Belgian","Somewhat happy","<img src='images/blue25.png'></img>","Positive valence","141","gambleLoss","25","99",578,"37","undefined","undefined","undefined",680622
"142",143,143,10,"18 (one day till 19)","Female","Belgian","Somewhat happy","<img src='images/green25.png'></img>","Positive valence","142","gambleWin","25","206",939,"39","undefined","undefined","undefined",682785
"143",144,144,10,"18 (one day till 19)","Female","Belgian","Somewhat happy","<img src='images/green25.png'></img>","Positive valence","143","gambleWin","25","550",478,"39","undefined","undefined","undefined",684824
"144",145,145,10,"18 (one day till 19)","Female","Belgian","Somewhat happy","<img src='images/blue25.png'></img>","Positive valence","144","gambleWin","25","285",380,"39","undefined","undefined","undefined",686502
"145",146,146,10,"18 (one day till 19)","Female","Belgian","Somewhat happy","<img src='images/blue25.png'></img>","Positive valence","145","gambleLoss","25","328",306,"39","undefined","undefined","undefined",688144
"146",147,147,10,"18 (one day till 19)","Female","Belgian","Somewhat happy","<img src='images/purple0.png'></img>","Positive valence","146","nonGamble","25","139",698,"38","undefined","undefined","undefined",689995
"147",148,148,10,"18 (one day till 19)","Female","Belgian","Somewhat happy","<img src='images/orange25.png'></img>","Positive valence","147","gambleLoss","25","232",533,"37","undefined","undefined","undefined",691779
"148",149,149,10,"18 (one day till 19)","Female","Belgian","Somewhat happy","<img src='images/green25.png'></img>","Positive valence","148","gambleWin","25","294",369,"39","undefined","undefined","undefined",693456
"149",150,150,10,"18 (one day till 19)","Female","Belgian","Somewhat happy","<img src='images/purple0.png'></img>","Positive valence","149","nonGamble","25","243",586,"38","undefined","undefined","undefined",695303
"150",151,151,10,"18 (one day till 19)","Female","Belgian","Somewhat happy","<img src='images/orange25.png'></img>","Positive valence","150","gambleWin","25","405",1172,"39","undefined","undefined","undefined",697901
"151",152,152,10,"18 (one day till 19)","Female","Belgian","Somewhat happy","<img src='images/green25.png'></img>","Positive valence","151","gambleLoss","25","152",624,"39","undefined","undefined","undefined",699699
"152",153,153,10,"18 (one day till 19)","Female","Belgian","Somewhat happy","<img src='images/purple0.png'></img>","Positive valence","152","nonGamble","25","266",397,"38","undefined","undefined","undefined",701423
"153",154,154,10,"18 (one day till 19)","Female","Belgian","Somewhat happy","<img src='images/yellow25.png'></img>","Positive valence","153","gambleWin","25","230",435,"37","undefined","undefined","undefined",703102
"154",155,155,10,"18 (one day till 19)","Female","Belgian","Somewhat happy","<img src='images/purple0.png'></img>","Positive valence","154","nonGamble","25","321",575,"38","undefined","undefined","undefined",705008
"155",156,156,10,"18 (one day till 19)","Female","Belgian","Somewhat happy","<img src='images/yellow25.png'></img>","Positive valence","155","gambleLoss","25","622",720,"39","undefined","undefined","undefined",707358
"156",157,157,10,"18 (one day till 19)","Female","Belgian","Somewhat happy","<img src='images/blue25.png'></img>","Positive valence","156","gambleLoss","25","274",431,"37","undefined","undefined","undefined",709088
"157",158,158,10,"18 (one day till 19)","Female","Belgian","Somewhat happy","<img src='images/blue25.png'></img>","Positive valence","157","gambleWin","25","49",804,"39","undefined","undefined","undefined",710960
"158",159,159,10,"18 (one day till 19)","Female","Belgian","Somewhat happy","<img src='images/purple0.png'></img>","Positive valence","158","nonGamble","25","601",570,"38","undefined","undefined","undefined",713141
"159",160,160,10,"18 (one day till 19)","Female","Belgian","Somewhat happy","<img src='images/orange25.png'></img>","Positive valence","159","gambleWin","25","121",489,"39","undefined","undefined","undefined",714766
"160",161,161,10,"18 (one day till 19)","Female","Belgian","Somewhat happy","<img src='images/yellow25.png'></img>","Positive valence","160","gambleLoss","25","321",387,"39","undefined","undefined","undefined",716487
"161",162,162,10,"18 (one day till 19)","Female","Belgian","Somewhat happy","<img src='images/blue25.png'></img>","Positive valence","161","gambleLoss","25","307",433,"39","undefined","undefined","undefined",718238
"162",163,163,10,"18 (one day till 19)","Female","Belgian","Somewhat happy","<img src='images/blue25.png'></img>","Positive valence","162","gambleLoss","25","26",506,"37","undefined","undefined","undefined",719788
"163",164,164,10,"18 (one day till 19)","Female","Belgian","Somewhat happy","<img src='images/orange25.png'></img>","Positive valence","163","gambleWin","25","333",286,"39","undefined","undefined","undefined",721424
"164",165,165,10,"18 (one day till 19)","Female","Belgian","Somewhat happy","<img src='images/green25.png'></img>","Positive valence","164","gambleWin","25","123",291,"39","undefined","undefined","undefined",722850
"165",166,166,10,"18 (one day till 19)","Female","Belgian","Somewhat happy","<img src='images/orange25.png'></img>","Positive valence","165","gambleWin","25","186",378,"39","undefined","undefined","undefined",724424
"166",167,167,10,"18 (one day till 19)","Female","Belgian","Somewhat happy","<img src='images/purple0.png'></img>","Positive valence","166","nonGamble","25","256",796,"38","undefined","undefined","undefined",726491
"167",168,168,10,"18 (one day till 19)","Female","Belgian","Somewhat happy","<img src='images/yellow25.png'></img>","Positive valence","167","gambleWin","25","279",666,"39","undefined","undefined","undefined",728453
"168",169,169,10,"18 (one day till 19)","Female","Belgian","Somewhat happy","<img src='images/purple0.png'></img>","Positive valence","168","nonGamble","25","226",644,"38","undefined","undefined","undefined",730332
"169",170,170,10,"18 (one day till 19)","Female","Belgian","Somewhat happy","<img src='images/blue25.png'></img>","Positive valence","169","gambleWin","25","82",370,"39","undefined","undefined","undefined",731791
"170",171,171,10,"18 (one day till 19)","Female","Belgian","Somewhat happy","<img src='images/blue25.png'></img>","Positive valence","170","gambleWin","25","163",795,"39","undefined","undefined","undefined",733767
"171",172,172,10,"18 (one day till 19)","Female","Belgian","Somewhat happy","<img src='images/orange25.png'></img>","Positive valence","171","gambleLoss","25","1",633,"39","undefined","undefined","undefined",735419
"172",173,173,10,"18 (one day till 19)","Female","Belgian","Somewhat happy","<img src='images/green25.png'></img>","Positive valence","172","gambleWin","25","152",590,"39","undefined","undefined","undefined",737179
"173",174,174,10,"18 (one day till 19)","Female","Belgian","Somewhat happy","<img src='images/yellow25.png'></img>","Positive valence","173","gambleLoss","25","204",522,"39","undefined","undefined","undefined",738917
"174",175,175,10,"18 (one day till 19)","Female","Belgian","Somewhat happy","<img src='images/orange25.png'></img>","Positive valence","174","gambleLoss","25","161",654,"39","undefined","undefined","undefined",740750
"175",176,176,10,"18 (one day till 19)","Female","Belgian","Somewhat happy","<img src='images/purple0.png'></img>","Positive valence","175","nonGamble","25","253",631,"38","undefined","undefined","undefined",742640
"176",177,177,10,"18 (one day till 19)","Female","Belgian","Somewhat happy","<img src='images/purple0.png'></img>","Positive valence","176","nonGamble","25","641",524,"38","undefined","undefined","undefined",744813
"177",178,178,10,"18 (one day till 19)","Female","Belgian","Somewhat happy","<img src='images/orange25.png'></img>","Positive valence","177","gambleWin","25","271",405,"39","undefined","undefined","undefined",746507
"178",179,179,10,"18 (one day till 19)","Female","Belgian","Somewhat happy","<img src='images/blue25.png'></img>","Positive valence","178","gambleWin","25","309",617,"39","undefined","undefined","undefined",748441
"179",180,180,10,"18 (one day till 19)","Female","Belgian","Somewhat happy","<img src='images/purple0.png'></img>","Positive valence","179","nonGamble","25","327",590,"38","undefined","undefined","undefined",750378
"180",181,181,10,"18 (one day till 19)","Female","Belgian","Somewhat happy","<img src='images/purple0.png'></img>","Positive valence","180","nonGamble","25","276",425,"38","undefined","undefined","undefined",752092
"181",182,182,10,"18 (one day till 19)","Female","Belgian","Somewhat happy","undefined","undefined","undefined","undefined","undefined","undefined",15417,"undefined","3","Perseverance","undefined",780894
"182",183,183,10,"18 (one day till 19)","Female","Belgian","Somewhat happy","undefined","undefined","undefined","undefined","undefined","undefined",12682,"undefined","3","Premeditation","undefined",793587
"183",184,184,10,"18 (one day till 19)","Female","Belgian","Somewhat happy","undefined","undefined","undefined","undefined","undefined","undefined",11394,"undefined","3","Positive Urgency","undefined",804993
"184",185,185,10,"18 (one day till 19)","Female","Belgian","Somewhat happy","undefined","undefined","undefined","undefined","undefined","undefined",9371,"undefined","2","Perseverance","undefined",814382
"185",186,186,10,"18 (one day till 19)","Female","Belgian","Somewhat happy","undefined","undefined","undefined","undefined","undefined","undefined",12147,"undefined","2","Premeditation","undefined",826534
"186",187,187,10,"18 (one day till 19)","Female","Belgian","Somewhat happy","undefined","undefined","undefined","undefined","undefined","undefined",10878,"undefined","3","Negative Urgency","undefined",837421
"187",188,188,10,"18 (one day till 19)","Female","Belgian","Somewhat happy","undefined","undefined","undefined","undefined","undefined","undefined",14241,"undefined","3","Perseverance","undefined",851671
"188",189,189,10,"18 (one day till 19)","Female","Belgian","Somewhat happy","undefined","undefined","undefined","undefined","undefined","undefined",9023,"undefined","3","Negative Urgency","undefined",860707
"189",190,190,10,"18 (one day till 19)","Female","Belgian","Somewhat happy","undefined","undefined","undefined","undefined","undefined","undefined",4650,"undefined","3","Sensation Seeking","undefined",865368
"190",191,191,10,"18 (one day till 19)","Female","Belgian","Somewhat happy","undefined","undefined","undefined","undefined","undefined","undefined",7212,"undefined","3","Positive Urgency","undefined",872588
"191",192,192,10,"18 (one day till 19)","Female","Belgian","Somewhat happy","undefined","undefined","undefined","undefined","undefined","undefined",7911,"undefined","2","Perseverance","undefined",880508
"192",193,193,10,"18 (one day till 19)","Female","Belgian","Somewhat happy","undefined","undefined","undefined","undefined","undefined","undefined",16356,"undefined","2","Premeditation","undefined",896873
"193",194,194,10,"18 (one day till 19)","Female","Belgian","Somewhat happy","undefined","undefined","undefined","undefined","undefined","undefined",28530,"undefined","3","Negative Urgency","undefined",925415
"194",195,195,10,"18 (one day till 19)","Female","Belgian","Somewhat happy","undefined","undefined","undefined","undefined","undefined","undefined",27273,"undefined","3","Sensation Seeking","undefined",952696
"195",196,196,10,"18 (one day till 19)","Female","Belgian","Somewhat happy","undefined","undefined","undefined","undefined","undefined","undefined",6648,"undefined","3","Negative Urgency","undefined",959353
"196",197,197,10,"18 (one day till 19)","Female","Belgian","Somewhat happy","undefined","undefined","undefined","undefined","undefined","undefined",7344,"undefined","3","Sensation Seeking","undefined",966707
"197",198,198,10,"18 (one day till 19)","Female","Belgian","Somewhat happy","undefined","undefined","undefined","undefined","undefined","undefined",9600,"undefined","2","Positive Urgency","undefined",976316
"198",199,199,10,"18 (one day till 19)","Female","Belgian","Somewhat happy","undefined","undefined","undefined","undefined","undefined","undefined",7414,"undefined","3","Sensation Seeking","undefined",983737
"199",200,200,10,"18 (one day till 19)","Female","Belgian","Somewhat happy","undefined","undefined","undefined","undefined","undefined","undefined",5719,"undefined","2","Premeditation","undefined",989467
"200",201,201,10,"18 (one day till 19)","Female","Belgian","Somewhat happy","undefined","undefined","undefined","undefined","undefined","undefined",9755,"undefined","3","Positive Urgency","undefined",999233
